trial,ball_speed,interactor,bounce,bounce_moment,random_bounce_direction,target_onset,speed_change,ball_change,abs_congruent,sim_congruent,response,accuracy,rt,start_pos,end_pos,abs_rfup,abs_rfright,abs_rfdown,abs_rfleft,sim_rfup,sim_rfright,sim_rfdown,sim_rfleft
1,7.5,135_top_u,True,3.665490875020623,,3.7720209165709093,slower,True,False,True,,False,,down,right,"(1, 0)","(0, 1)","(0, 0)","(0, 0)","(0, 0)","(1, 1)","(0, 0)","(0, 0)"
2,8.0,none_l,True,,left,3.720517541631125,slower,True,False,False,,False,,right,down,"(0, 0)","(0, 0)","(0, 1)","(1, 0)","(0, 0)","(0, 0)","(0, 1)","(1, 0)"
3,7.5,135_top_u,True,3.618007499957457,,,,False,False,True,,,,down,right,"(1, 0)","(0, 1)","(0, 0)","(0, 0)","(0, 0)","(1, 1)","(0, 0)","(0, 0)"
4,8.0,45_bottom_d,False,,,3.7155899167992175,slower,True,True,False,down,True,1.4125882500084117,up,down,"(0, 0)","(0, 0)","(1, 1)","(0, 0)","(0, 0)","(1, 0)","(0, 1)","(0, 0)"
5,8.5,45_bottom_l,False,,,3.7281338333850726,faster,True,True,False,left,True,1.3543359999312088,right,left,"(0, 0)","(0, 0)","(0, 0)","(1, 1)","(1, 0)","(0, 0)","(0, 0)","(0, 1)"
6,8.5,45_bottom_d,False,,,3.7213246250757948,slower,True,True,False,down,True,1.1066218331689015,up,down,"(0, 0)","(0, 0)","(1, 1)","(0, 0)","(0, 0)","(1, 0)","(0, 1)","(0, 0)"
7,8.0,135_bottom_r,False,,,,,False,True,False,,,,left,right,"(0, 0)","(1, 1)","(0, 0)","(0, 0)","(1, 0)","(0, 1)","(0, 0)","(0, 0)"
8,8.5,45_bottom_d,False,,,3.8374174166237935,slower,True,True,False,space,,,up,down,"(0, 0)","(0, 0)","(1, 1)","(0, 0)","(0, 0)","(1, 0)","(0, 1)","(0, 0)"
9,8.5,none_l,False,,,3.7321538749383762,slower,True,True,True,left,True,0.9820963750826195,right,left,"(0, 0)","(0, 0)","(0, 0)","(1, 1)","(0, 0)","(0, 0)","(0, 0)","(1, 1)"
10,8.5,135_top_u,False,,,3.7210114584304392,faster,True,True,False,up,True,0.7214417083887383,down,up,"(1, 1)","(0, 0)","(0, 0)","(0, 0)","(0, 1)","(1, 0)","(0, 0)","(0, 0)"
11,7.5,45_top_u,True,3.613999833352864,,,,False,False,True,left,False,0.7318617916898802,down,left,"(1, 0)","(0, 0)","(0, 0)","(0, 1)","(0, 0)","(0, 0)","(0, 0)","(1, 1)"
12,7.5,135_top_l,True,3.607029000064358,,,,False,False,True,,,,right,down,"(0, 0)","(0, 0)","(0, 1)","(1, 0)","(0, 0)","(0, 0)","(1, 1)","(0, 0)"
13,7.5,135_top_u,False,,,3.7119466668227687,slower,True,True,False,up,True,0.8023849165765569,down,up,"(1, 1)","(0, 0)","(0, 0)","(0, 0)","(0, 1)","(1, 0)","(0, 0)","(0, 0)"
14,8.5,none_d,False,,,3.716390624991618,faster,True,True,True,down,True,0.8059575833613053,up,down,"(0, 0)","(0, 0)","(1, 1)","(0, 0)","(0, 0)","(0, 0)","(1, 1)","(0, 0)"
15,7.5,135_top_l,True,3.6239598334068432,,,,False,False,True,,,,right,down,"(0, 0)","(0, 0)","(0, 1)","(1, 0)","(0, 0)","(0, 0)","(1, 1)","(0, 0)"
16,8.0,135_bottom_d,False,,,,,False,True,False,,,,up,down,"(0, 0)","(0, 0)","(1, 1)","(0, 0)","(0, 0)","(0, 0)","(0, 1)","(1, 0)"
17,8.0,45_bottom_d,True,3.6239457917399704,,3.7299792917910963,faster,True,False,True,right,True,0.7841348332585767,up,right,"(0, 0)","(0, 1)","(1, 0)","(0, 0)","(0, 0)","(1, 1)","(0, 0)","(0, 0)"
18,8.5,none_r,True,,right,3.7220343749504536,slower,True,False,False,,False,,left,down,"(0, 0)","(1, 0)","(0, 1)","(0, 0)","(0, 0)","(1, 0)","(0, 1)","(0, 0)"
19,7.5,135_bottom_r,False,,,,,False,True,False,,,,left,right,"(0, 0)","(1, 1)","(0, 0)","(0, 0)","(1, 0)","(0, 1)","(0, 0)","(0, 0)"
20,8.0,none_d,True,,left,3.720322083332576,slower,True,False,False,,False,,up,right,"(0, 0)","(0, 1)","(1, 0)","(0, 0)","(0, 0)","(0, 1)","(1, 0)","(0, 0)"
21,8.0,45_top_r,True,3.624183458276093,,3.7292431249516085,slower,True,False,True,down,True,0.6992707082536072,left,down,"(0, 0)","(1, 0)","(0, 1)","(0, 0)","(0, 0)","(0, 0)","(1, 1)","(0, 0)"
22,8.5,45_bottom_l,False,,,,,False,True,False,,,,right,left,"(0, 0)","(0, 0)","(0, 0)","(1, 1)","(1, 0)","(0, 0)","(0, 0)","(0, 1)"
23,8.0,135_top_l,False,,,,,False,True,False,,,,right,left,"(0, 0)","(0, 0)","(0, 0)","(1, 1)","(0, 0)","(0, 0)","(1, 0)","(0, 1)"
24,8.5,45_top_u,False,,,3.722453333437443,faster,True,True,False,up,True,0.9964632915798575,down,up,"(1, 1)","(0, 0)","(0, 0)","(0, 0)","(0, 1)","(0, 0)","(0, 0)","(1, 0)"
25,8.5,135_bottom_r,True,3.619477833271958,,,,False,False,True,,,,left,up,"(0, 1)","(1, 0)","(0, 0)","(0, 0)","(1, 1)","(0, 0)","(0, 0)","(0, 0)"
26,8.0,135_bottom_d,False,,,,,False,True,False,,,,up,down,"(0, 0)","(0, 0)","(1, 1)","(0, 0)","(0, 0)","(0, 0)","(0, 1)","(1, 0)"
27,8.0,45_top_r,True,3.6165450416738167,,3.7209222082747146,slower,True,False,True,down,True,0.7859399584122002,left,down,"(0, 0)","(1, 0)","(0, 1)","(0, 0)","(0, 0)","(0, 0)","(1, 1)","(0, 0)"
28,8.0,none_u,True,,left,,,False,False,False,,,,down,left,"(1, 0)","(0, 0)","(0, 0)","(0, 1)","(1, 0)","(0, 0)","(0, 0)","(0, 1)"
29,8.0,none_r,False,,,,,False,True,True,,,,left,right,"(0, 0)","(1, 1)","(0, 0)","(0, 0)","(0, 0)","(1, 1)","(0, 0)","(0, 0)"
30,8.0,45_top_u,True,3.61699854163453,,3.7222046250244603,slower,True,False,True,left,True,0.7419816249748692,down,left,"(1, 0)","(0, 0)","(0, 0)","(0, 1)","(0, 0)","(0, 0)","(0, 0)","(1, 1)"
31,8.0,none_d,False,,,3.7202381249517202,slower,True,True,True,down,True,0.8687932916218415,up,down,"(0, 0)","(0, 0)","(1, 1)","(0, 0)","(0, 0)","(0, 0)","(1, 1)","(0, 0)"
32,7.5,135_top_l,True,3.618283833260648,,,,False,False,True,,,,right,down,"(0, 0)","(0, 0)","(0, 1)","(1, 0)","(0, 0)","(0, 0)","(1, 1)","(0, 0)"
33,8.0,45_bottom_l,True,3.6181765833171085,,,,False,False,True,up,False,1.4526008333778009,right,up,"(0, 1)","(0, 0)","(0, 0)","(1, 0)","(1, 1)","(0, 0)","(0, 0)","(0, 0)"
34,7.5,none_u,False,,,,,False,True,True,,,,down,up,"(1, 1)","(0, 0)","(0, 0)","(0, 0)","(1, 1)","(0, 0)","(0, 0)","(0, 0)"
35,8.5,135_bottom_r,False,,,3.721391374943778,faster,True,True,False,right,True,0.9112668334273621,left,right,"(0, 0)","(1, 1)","(0, 0)","(0, 0)","(1, 0)","(0, 1)","(0, 0)","(0, 0)"
36,7.5,45_top_u,True,3.626697291736491,,3.731573500088416,slower,True,False,True,left,True,0.7621411667205393,down,left,"(1, 0)","(0, 0)","(0, 0)","(0, 1)","(0, 0)","(0, 0)","(0, 0)","(1, 1)"
37,7.5,none_d,False,,,,,False,True,True,space,,,up,down,"(0, 0)","(0, 0)","(1, 1)","(0, 0)","(0, 0)","(0, 0)","(1, 1)","(0, 0)"
38,8.5,135_bottom_r,True,3.6168045833474025,,3.7219665000448003,slower,True,False,True,up,True,0.9548254999099299,left,up,"(0, 1)","(1, 0)","(0, 0)","(0, 0)","(1, 1)","(0, 0)","(0, 0)","(0, 0)"
39,8.0,135_top_l,True,3.615957999951206,,3.7228122083470225,slower,True,False,True,down,True,0.7404456665972248,right,down,"(0, 0)","(0, 0)","(0, 1)","(1, 0)","(0, 0)","(0, 0)","(1, 1)","(0, 0)"
40,7.5,135_top_l,False,,,3.7197427082573995,slower,True,True,False,left,True,0.8044887083815411,right,left,"(0, 0)","(0, 0)","(0, 0)","(1, 1)","(0, 0)","(0, 0)","(1, 0)","(0, 1)"
41,8.5,135_bottom_d,False,,,,,False,True,False,down,False,1.0893085834104568,up,down,"(0, 0)","(0, 0)","(1, 1)","(0, 0)","(0, 0)","(0, 0)","(0, 1)","(1, 0)"
42,8.0,135_top_l,False,,,3.725603458355181,slower,True,True,False,left,True,0.7194793333765119,right,left,"(0, 0)","(0, 0)","(0, 0)","(1, 1)","(0, 0)","(0, 0)","(1, 0)","(0, 1)"
43,8.0,45_top_r,True,3.619341083453037,,3.7241331667173654,slower,True,False,True,down,True,0.8071293332614005,left,down,"(0, 0)","(1, 0)","(0, 1)","(0, 0)","(0, 0)","(0, 0)","(1, 1)","(0, 0)"
44,7.5,none_u,False,,,3.7197200417285785,slower,True,True,True,up,True,0.7397586250444874,down,up,"(1, 1)","(0, 0)","(0, 0)","(0, 0)","(1, 1)","(0, 0)","(0, 0)","(0, 0)"
45,7.5,45_top_u,True,3.616046000039205,,3.7209705415880308,faster,True,False,True,left,True,0.7871878334553912,down,left,"(1, 0)","(0, 0)","(0, 0)","(0, 1)","(0, 0)","(0, 0)","(0, 0)","(1, 1)"
46,7.5,45_top_u,False,,,,,False,True,False,up,False,1.0688309165416285,down,up,"(1, 1)","(0, 0)","(0, 0)","(0, 0)","(0, 1)","(0, 0)","(0, 0)","(1, 0)"
47,7.5,none_u,False,,,,,False,True,True,up,False,0.8144697499228641,down,up,"(1, 1)","(0, 0)","(0, 0)","(0, 0)","(1, 1)","(0, 0)","(0, 0)","(0, 0)"
48,8.0,135_bottom_d,False,,,3.7234410415403545,faster,True,True,False,down,True,0.7616258750203997,up,down,"(0, 0)","(0, 0)","(1, 1)","(0, 0)","(0, 0)","(0, 0)","(0, 1)","(1, 0)"
49,8.0,45_top_u,False,,,,,False,True,False,up,False,0.7376437917118892,down,up,"(1, 1)","(0, 0)","(0, 0)","(0, 0)","(0, 1)","(0, 0)","(0, 0)","(1, 0)"
50,8.5,135_top_u,True,3.6315888749668375,,3.736924458295107,slower,True,False,True,right,True,0.6982036667177454,down,right,"(1, 0)","(0, 1)","(0, 0)","(0, 0)","(0, 0)","(1, 1)","(0, 0)","(0, 0)"
51,8.5,none_r,False,,,,,False,True,True,,,,left,right,"(0, 0)","(1, 1)","(0, 0)","(0, 0)","(0, 0)","(1, 1)","(0, 0)","(0, 0)"
52,8.5,none_d,True,,left,,,False,False,False,right,False,0.798328791745007,up,right,"(0, 0)","(0, 1)","(1, 0)","(0, 0)","(0, 0)","(0, 1)","(1, 0)","(0, 0)"
53,7.5,45_top_r,True,3.6203450416214764,,,,False,False,True,,,,left,down,"(0, 0)","(1, 0)","(0, 1)","(0, 0)","(0, 0)","(0, 0)","(1, 1)","(0, 0)"
54,8.5,45_top_r,True,3.6163995831739157,,,,False,False,True,,,,left,down,"(0, 0)","(1, 0)","(0, 1)","(0, 0)","(0, 0)","(0, 0)","(1, 1)","(0, 0)"
55,7.5,135_bottom_r,False,,,3.7199825833085924,faster,True,True,False,right,True,0.7850895416922867,left,right,"(0, 0)","(1, 1)","(0, 0)","(0, 0)","(1, 0)","(0, 1)","(0, 0)","(0, 0)"
56,8.0,135_top_l,False,,,3.72019999998156,faster,True,True,False,left,True,0.7623992083827034,right,left,"(0, 0)","(0, 0)","(0, 0)","(1, 1)","(0, 0)","(0, 0)","(1, 0)","(0, 1)"
57,8.0,none_u,False,,,3.7187890831846744,faster,True,True,True,up,True,0.7902908334508538,down,up,"(1, 1)","(0, 0)","(0, 0)","(0, 0)","(1, 1)","(0, 0)","(0, 0)","(0, 0)"
58,7.5,45_top_u,True,3.6186407500645146,,,,False,False,True,,,,down,left,"(1, 0)","(0, 0)","(0, 0)","(0, 1)","(0, 0)","(0, 0)","(0, 0)","(1, 1)"
59,8.5,45_bottom_d,False,,,3.7234607082791626,faster,True,True,False,down,True,0.7018816666677594,up,down,"(0, 0)","(0, 0)","(1, 1)","(0, 0)","(0, 0)","(1, 0)","(0, 1)","(0, 0)"
60,8.5,none_d,True,,right,3.7172492500394583,faster,True,False,False,,False,,up,left,"(0, 0)","(0, 0)","(1, 0)","(0, 1)","(0, 0)","(0, 0)","(1, 0)","(0, 1)"
61,8.0,none_d,True,,left,,,False,False,False,,,,up,right,"(0, 0)","(0, 1)","(1, 0)","(0, 0)","(0, 0)","(0, 1)","(1, 0)","(0, 0)"
62,8.0,45_bottom_l,True,3.6147772084223107,,,,False,False,True,,,,right,up,"(0, 1)","(0, 0)","(0, 0)","(1, 0)","(1, 1)","(0, 0)","(0, 0)","(0, 0)"
63,8.0,45_bottom_l,False,,,,,False,True,False,,,,right,left,"(0, 0)","(0, 0)","(0, 0)","(1, 1)","(1, 0)","(0, 0)","(0, 0)","(0, 1)"
64,8.5,135_bottom_r,False,,,,,False,True,False,,,,left,right,"(0, 0)","(1, 1)","(0, 0)","(0, 0)","(1, 0)","(0, 1)","(0, 0)","(0, 0)"
65,8.5,none_l,True,,left,3.732846249942668,slower,True,False,False,,False,,right,down,"(0, 0)","(0, 0)","(0, 1)","(1, 0)","(0, 0)","(0, 0)","(0, 1)","(1, 0)"
66,8.5,45_top_u,True,3.607867249986157,,,,False,False,True,,,,down,left,"(1, 0)","(0, 0)","(0, 0)","(0, 1)","(0, 0)","(0, 0)","(0, 0)","(1, 1)"
67,8.5,45_bottom_l,False,,,3.721467833267525,slower,True,True,False,left,True,0.7409565000561997,right,left,"(0, 0)","(0, 0)","(0, 0)","(1, 1)","(1, 0)","(0, 0)","(0, 0)","(0, 1)"
68,8.5,45_bottom_l,True,3.618024458293803,,3.7225738333072513,faster,True,False,True,up,True,0.9091462499927729,right,up,"(0, 1)","(0, 0)","(0, 0)","(1, 0)","(1, 1)","(0, 0)","(0, 0)","(0, 0)"
69,7.5,135_top_l,False,,,,,False,True,False,,,,right,left,"(0, 0)","(0, 0)","(0, 0)","(1, 1)","(0, 0)","(0, 0)","(1, 0)","(0, 1)"
70,8.5,45_bottom_l,False,,,,,False,True,False,,,,right,left,"(0, 0)","(0, 0)","(0, 0)","(1, 1)","(1, 0)","(0, 0)","(0, 0)","(0, 1)"
71,7.5,none_l,True,,left,3.7231659166282043,slower,True,False,False,,False,,right,down,"(0, 0)","(0, 0)","(0, 1)","(1, 0)","(0, 0)","(0, 0)","(0, 1)","(1, 0)"
72,8.5,45_top_u,True,3.6242231250507757,,3.7295862917089835,faster,True,False,True,left,True,0.6130316250491887,down,left,"(1, 0)","(0, 0)","(0, 0)","(0, 1)","(0, 0)","(0, 0)","(0, 0)","(1, 1)"
73,8.5,45_top_r,False,,,,,False,True,False,right,False,1.0946542082820088,left,right,"(0, 0)","(1, 1)","(0, 0)","(0, 0)","(0, 0)","(0, 1)","(1, 0)","(0, 0)"
74,8.0,none_d,True,,right,3.728313750005327,slower,True,False,False,,False,,up,left,"(0, 0)","(0, 0)","(1, 0)","(0, 1)","(0, 0)","(0, 0)","(1, 0)","(0, 1)"
75,7.5,45_bottom_l,False,,,3.7206462916219607,faster,True,True,False,left,True,0.762230958440341,right,left,"(0, 0)","(0, 0)","(0, 0)","(1, 1)","(1, 0)","(0, 0)","(0, 0)","(0, 1)"
76,8.0,none_u,False,,,3.719121041591279,faster,True,True,True,up,True,0.7811478333314881,down,up,"(1, 1)","(0, 0)","(0, 0)","(0, 0)","(1, 1)","(0, 0)","(0, 0)","(0, 0)"
77,8.5,135_top_u,True,3.6177667916053906,,3.7231635415228084,faster,True,False,True,right,True,0.8265425834106281,down,right,"(1, 0)","(0, 1)","(0, 0)","(0, 0)","(0, 0)","(1, 1)","(0, 0)","(0, 0)"
78,7.5,45_top_r,False,,,,,False,True,False,,,,left,right,"(0, 0)","(1, 1)","(0, 0)","(0, 0)","(0, 0)","(0, 1)","(1, 0)","(0, 0)"
79,8.0,none_l,False,,,3.7138821249827743,slower,True,True,True,left,True,0.8247603334020823,right,left,"(0, 0)","(0, 0)","(0, 0)","(1, 1)","(0, 0)","(0, 0)","(0, 0)","(1, 1)"
80,8.5,none_u,True,,right,,,False,False,False,,,,down,right,"(1, 0)","(0, 1)","(0, 0)","(0, 0)","(1, 0)","(0, 1)","(0, 0)","(0, 0)"
81,8.5,135_top_u,True,3.6168934581801295,,,,False,False,True,,,,down,right,"(1, 0)","(0, 1)","(0, 0)","(0, 0)","(0, 0)","(1, 1)","(0, 0)","(0, 0)"
82,8.5,45_top_u,True,3.618061791639775,,3.722834416665137,faster,True,False,True,left,True,0.846650791587308,down,left,"(1, 0)","(0, 0)","(0, 0)","(0, 1)","(0, 0)","(0, 0)","(0, 0)","(1, 1)"
83,7.5,135_bottom_d,True,3.6190817082533613,,,,False,False,True,,,,up,left,"(0, 0)","(0, 0)","(1, 0)","(0, 1)","(0, 0)","(0, 0)","(0, 0)","(1, 1)"
84,8.5,45_top_u,True,3.619788291747682,,3.724564166739583,faster,True,False,True,left,True,0.7854178749257699,down,left,"(1, 0)","(0, 0)","(0, 0)","(0, 1)","(0, 0)","(0, 0)","(0, 0)","(1, 1)"
85,7.5,45_top_r,False,,,3.7331685833632946,faster,True,True,False,,False,,left,right,"(0, 0)","(1, 1)","(0, 0)","(0, 0)","(0, 0)","(0, 1)","(1, 0)","(0, 0)"
86,8.0,135_top_u,True,3.6410360833397135,,,,False,False,True,,,,down,right,"(1, 0)","(0, 1)","(0, 0)","(0, 0)","(0, 0)","(1, 1)","(0, 0)","(0, 0)"
87,8.5,45_bottom_d,False,,,3.7309288333635777,slower,True,True,False,down,True,0.8253322916571051,up,down,"(0, 0)","(0, 0)","(1, 1)","(0, 0)","(0, 0)","(1, 0)","(0, 1)","(0, 0)"
88,7.5,none_l,False,,,,,False,True,True,,,,right,left,"(0, 0)","(0, 0)","(0, 0)","(1, 1)","(0, 0)","(0, 0)","(0, 0)","(1, 1)"
89,7.5,none_r,False,,,,,False,True,True,,,,left,right,"(0, 0)","(1, 1)","(0, 0)","(0, 0)","(0, 0)","(1, 1)","(0, 0)","(0, 0)"
90,7.5,135_bottom_d,True,3.6249987083720043,,,,False,False,True,,,,up,left,"(0, 0)","(0, 0)","(1, 0)","(0, 1)","(0, 0)","(0, 0)","(0, 0)","(1, 1)"
91,8.5,45_bottom_d,True,3.607096166582778,,,,False,False,True,,,,up,right,"(0, 0)","(0, 1)","(1, 0)","(0, 0)","(0, 0)","(1, 1)","(0, 0)","(0, 0)"
92,7.5,none_d,False,,,,,False,True,True,,,,up,down,"(0, 0)","(0, 0)","(1, 1)","(0, 0)","(0, 0)","(0, 0)","(1, 1)","(0, 0)"
93,8.5,none_l,True,,right,3.7560137915425003,faster,True,False,False,,False,,right,up,"(0, 1)","(0, 0)","(0, 0)","(1, 0)","(0, 1)","(0, 0)","(0, 0)","(1, 0)"
94,8.0,none_d,False,,,,,False,True,True,,,,up,down,"(0, 0)","(0, 0)","(1, 1)","(0, 0)","(0, 0)","(0, 0)","(1, 1)","(0, 0)"
95,8.0,135_bottom_d,True,3.618123250082135,,3.7233277916675434,faster,True,False,True,left,True,0.7833210416138172,up,left,"(0, 0)","(0, 0)","(1, 0)","(0, 1)","(0, 0)","(0, 0)","(0, 0)","(1, 1)"
96,8.5,none_l,True,,right,3.7181868749903515,faster,True,False,False,up,True,1.1505128333810717,right,up,"(0, 1)","(0, 0)","(0, 0)","(1, 0)","(0, 1)","(0, 0)","(0, 0)","(1, 0)"
97,7.5,none_r,False,,,3.7171578333945945,faster,True,True,True,right,True,0.6969793334137648,left,right,"(0, 0)","(1, 1)","(0, 0)","(0, 0)","(0, 0)","(1, 1)","(0, 0)","(0, 0)"
98,7.5,45_bottom_d,True,3.6165732918307185,,,,False,False,True,,,,up,right,"(0, 0)","(0, 1)","(1, 0)","(0, 0)","(0, 0)","(1, 1)","(0, 0)","(0, 0)"
99,8.0,45_bottom_l,False,,,3.722316583385691,faster,True,True,False,left,True,0.7172987083904445,right,left,"(0, 0)","(0, 0)","(0, 0)","(1, 1)","(1, 0)","(0, 0)","(0, 0)","(0, 1)"
100,7.5,135_bottom_d,False,,,,,False,True,False,,,,up,down,"(0, 0)","(0, 0)","(1, 1)","(0, 0)","(0, 0)","(0, 0)","(0, 1)","(1, 0)"
101,8.5,135_bottom_r,False,,,3.7276790416799486,faster,True,True,False,right,True,0.721163458423689,left,right,"(0, 0)","(1, 1)","(0, 0)","(0, 0)","(1, 0)","(0, 1)","(0, 0)","(0, 0)"
102,8.0,none_r,False,,,,,False,True,True,,,,left,right,"(0, 0)","(1, 1)","(0, 0)","(0, 0)","(0, 0)","(1, 1)","(0, 0)","(0, 0)"
103,7.5,135_top_u,True,3.618411291623488,,,,False,False,True,,,,down,right,"(1, 0)","(0, 1)","(0, 0)","(0, 0)","(0, 0)","(1, 1)","(0, 0)","(0, 0)"
104,8.5,none_l,True,,left,3.7170138749061152,slower,True,False,False,,False,,right,down,"(0, 0)","(0, 0)","(0, 1)","(1, 0)","(0, 0)","(0, 0)","(0, 1)","(1, 0)"
105,7.5,135_top_u,True,3.618681833264418,,,,False,False,True,,,,down,right,"(1, 0)","(0, 1)","(0, 0)","(0, 0)","(0, 0)","(1, 1)","(0, 0)","(0, 0)"
106,7.5,45_top_r,True,3.615860791760497,,,,False,False,True,,,,left,down,"(0, 0)","(1, 0)","(0, 1)","(0, 0)","(0, 0)","(0, 0)","(1, 1)","(0, 0)"
107,7.5,45_top_r,False,,,,,False,True,False,,,,left,right,"(0, 0)","(1, 1)","(0, 0)","(0, 0)","(0, 0)","(0, 1)","(1, 0)","(0, 0)"
108,8.5,45_top_r,False,,,3.7281979999970645,slower,True,True,False,right,True,0.8291745834285393,left,right,"(0, 0)","(1, 1)","(0, 0)","(0, 0)","(0, 0)","(0, 1)","(1, 0)","(0, 0)"
109,8.5,none_l,False,,,3.7307867081835866,slower,True,True,True,left,True,0.7627186250174418,right,left,"(0, 0)","(0, 0)","(0, 0)","(1, 1)","(0, 0)","(0, 0)","(0, 0)","(1, 1)"
110,8.5,45_top_r,False,,,,,False,True,False,right,False,1.178910041693598,left,right,"(0, 0)","(1, 1)","(0, 0)","(0, 0)","(0, 0)","(0, 1)","(1, 0)","(0, 0)"
111,8.0,45_bottom_d,True,3.619609749992378,,3.72393404180184,slower,True,False,True,right,True,0.744085666607134,up,right,"(0, 0)","(0, 1)","(1, 0)","(0, 0)","(0, 0)","(1, 1)","(0, 0)","(0, 0)"
112,8.0,none_l,False,,,,,False,True,True,,,,right,left,"(0, 0)","(0, 0)","(0, 0)","(1, 1)","(0, 0)","(0, 0)","(0, 0)","(1, 1)"
113,8.0,45_top_u,True,3.6313985832966864,,,,False,False,True,,,,down,left,"(1, 0)","(0, 0)","(0, 0)","(0, 1)","(0, 0)","(0, 0)","(0, 0)","(1, 1)"
114,8.5,135_top_u,True,3.614847750053741,,,,False,False,True,,,,down,right,"(1, 0)","(0, 1)","(0, 0)","(0, 0)","(0, 0)","(1, 1)","(0, 0)","(0, 0)"
115,8.5,none_r,False,,,3.717934458400123,slower,True,True,True,right,True,0.7206384165911004,left,right,"(0, 0)","(1, 1)","(0, 0)","(0, 0)","(0, 0)","(1, 1)","(0, 0)","(0, 0)"
116,7.5,45_bottom_d,False,,,3.7253231668146327,slower,True,True,False,down,True,0.7213082499802113,up,down,"(0, 0)","(0, 0)","(1, 1)","(0, 0)","(0, 0)","(1, 0)","(0, 1)","(0, 0)"
117,8.0,none_r,False,,,3.724001625087112,faster,True,True,True,right,True,0.7441120415460318,left,right,"(0, 0)","(1, 1)","(0, 0)","(0, 0)","(0, 0)","(1, 1)","(0, 0)","(0, 0)"
118,7.5,135_top_l,True,3.620595333282836,,3.726193333393894,faster,True,False,True,down,True,0.6791168331401423,right,down,"(0, 0)","(0, 0)","(0, 1)","(1, 0)","(0, 0)","(0, 0)","(1, 1)","(0, 0)"
119,8.5,135_top_l,True,3.6220361666055396,,,,False,False,True,,,,right,down,"(0, 0)","(0, 0)","(0, 1)","(1, 0)","(0, 0)","(0, 0)","(1, 1)","(0, 0)"
120,8.0,135_top_u,True,3.6201377499382943,,,,False,False,True,,,,down,right,"(1, 0)","(0, 1)","(0, 0)","(0, 0)","(0, 0)","(1, 1)","(0, 0)","(0, 0)"
121,8.5,none_d,True,,right,,,False,False,False,,,,up,left,"(0, 0)","(0, 0)","(1, 0)","(0, 1)","(0, 0)","(0, 0)","(1, 0)","(0, 1)"
122,8.0,45_bottom_d,False,,,3.7228705832967535,slower,True,True,False,down,True,0.828642625012435,up,down,"(0, 0)","(0, 0)","(1, 1)","(0, 0)","(0, 0)","(1, 0)","(0, 1)","(0, 0)"
123,7.5,135_top_u,True,3.614867916679941,,,,False,False,True,,,,down,right,"(1, 0)","(0, 1)","(0, 0)","(0, 0)","(0, 0)","(1, 1)","(0, 0)","(0, 0)"
124,8.5,none_r,True,,right,3.7173440833576024,faster,True,False,False,,False,,left,down,"(0, 0)","(1, 0)","(0, 1)","(0, 0)","(0, 0)","(1, 0)","(0, 1)","(0, 0)"
125,8.5,none_r,True,,right,,,False,False,False,,,,left,down,"(0, 0)","(1, 0)","(0, 1)","(0, 0)","(0, 0)","(1, 0)","(0, 1)","(0, 0)"
126,7.5,45_bottom_d,True,3.6184918750077486,,3.724013833445497,slower,True,False,True,right,True,0.8054024999728426,up,right,"(0, 0)","(0, 1)","(1, 0)","(0, 0)","(0, 0)","(1, 1)","(0, 0)","(0, 0)"
127,7.5,135_bottom_d,False,,,3.720971791772172,slower,True,True,False,down,True,0.7850166249554604,up,down,"(0, 0)","(0, 0)","(1, 1)","(0, 0)","(0, 0)","(0, 0)","(0, 1)","(1, 0)"
128,8.0,none_r,True,,right,,,False,False,False,,,,left,down,"(0, 0)","(1, 0)","(0, 1)","(0, 0)","(0, 0)","(1, 0)","(0, 1)","(0, 0)"
129,8.5,45_bottom_l,True,3.6372264166129753,,3.7424709167098626,slower,True,False,True,up,True,0.6844388332683593,right,up,"(0, 1)","(0, 0)","(0, 0)","(1, 0)","(1, 1)","(0, 0)","(0, 0)","(0, 0)"
130,7.5,135_bottom_d,False,,,,,False,True,False,,,,up,down,"(0, 0)","(0, 0)","(1, 1)","(0, 0)","(0, 0)","(0, 0)","(0, 1)","(1, 0)"
131,7.5,135_bottom_r,False,,,,,False,True,False,,,,left,right,"(0, 0)","(1, 1)","(0, 0)","(0, 0)","(1, 0)","(0, 1)","(0, 0)","(0, 0)"
132,8.0,none_r,True,,right,,,False,False,False,,,,left,down,"(0, 0)","(1, 0)","(0, 1)","(0, 0)","(0, 0)","(1, 0)","(0, 1)","(0, 0)"
133,7.5,none_l,False,,,3.713696208433248,slower,True,True,True,left,True,0.725237249978818,right,left,"(0, 0)","(0, 0)","(0, 0)","(1, 1)","(0, 0)","(0, 0)","(0, 0)","(1, 1)"
134,8.5,135_top_l,True,3.6204144166549668,,3.7249894166598096,faster,True,False,True,,False,,right,down,"(0, 0)","(0, 0)","(0, 1)","(1, 0)","(0, 0)","(0, 0)","(1, 1)","(0, 0)"
135,7.5,none_d,False,,,,,False,True,True,down,False,0.8402610832126811,up,down,"(0, 0)","(0, 0)","(1, 1)","(0, 0)","(0, 0)","(0, 0)","(1, 1)","(0, 0)"
136,8.0,none_u,True,,left,,,False,False,False,,,,down,left,"(1, 0)","(0, 0)","(0, 0)","(0, 1)","(1, 0)","(0, 0)","(0, 0)","(0, 1)"
137,7.5,135_bottom_d,True,3.6185522084124386,,,,False,False,True,,,,up,left,"(0, 0)","(0, 0)","(1, 0)","(0, 1)","(0, 0)","(0, 0)","(0, 0)","(1, 1)"
138,7.5,45_top_r,False,,,,,False,True,False,,,,left,right,"(0, 0)","(1, 1)","(0, 0)","(0, 0)","(0, 0)","(0, 1)","(1, 0)","(0, 0)"
139,7.5,135_bottom_r,False,,,3.7218194582965225,faster,True,True,False,right,True,0.8895792916882783,left,right,"(0, 0)","(1, 1)","(0, 0)","(0, 0)","(1, 0)","(0, 1)","(0, 0)","(0, 0)"
140,8.0,45_bottom_l,True,3.6132685833144933,,3.719025708385743,faster,True,False,True,up,True,0.7413032081676647,right,up,"(0, 1)","(0, 0)","(0, 0)","(1, 0)","(1, 1)","(0, 0)","(0, 0)","(0, 0)"
141,8.0,135_top_l,True,3.630520833306946,,3.734839375014417,faster,True,False,True,down,True,0.870820541633293,right,down,"(0, 0)","(0, 0)","(0, 1)","(1, 0)","(0, 0)","(0, 0)","(1, 1)","(0, 0)"
142,7.5,none_u,True,,right,,,False,False,False,,,,down,right,"(1, 0)","(0, 1)","(0, 0)","(0, 0)","(1, 0)","(0, 1)","(0, 0)","(0, 0)"
143,7.5,45_bottom_l,False,,,,,False,True,False,,,,right,left,"(0, 0)","(0, 0)","(0, 0)","(1, 1)","(1, 0)","(0, 0)","(0, 0)","(0, 1)"
144,8.0,135_bottom_r,False,,,,,False,True,False,,,,left,right,"(0, 0)","(1, 1)","(0, 0)","(0, 0)","(1, 0)","(0, 1)","(0, 0)","(0, 0)"
145,8.0,none_u,False,,,3.7233620000770316,faster,True,True,True,up,True,0.6729111250024289,down,up,"(1, 1)","(0, 0)","(0, 0)","(0, 0)","(1, 1)","(0, 0)","(0, 0)","(0, 0)"
146,8.0,45_bottom_d,False,,,,,False,True,False,,,,up,down,"(0, 0)","(0, 0)","(1, 1)","(0, 0)","(0, 0)","(1, 0)","(0, 1)","(0, 0)"
147,8.0,135_bottom_r,True,3.6178152916254476,,,,False,False,True,,,,left,up,"(0, 1)","(1, 0)","(0, 0)","(0, 0)","(1, 1)","(0, 0)","(0, 0)","(0, 0)"
148,8.0,none_u,True,,left,3.716826374991797,slower,True,False,False,,False,,down,left,"(1, 0)","(0, 0)","(0, 0)","(0, 1)","(1, 0)","(0, 0)","(0, 0)","(0, 1)"
149,8.5,none_u,True,,right,3.7398464584257454,faster,True,False,False,right,True,0.9190958749968559,down,right,"(1, 0)","(0, 1)","(0, 0)","(0, 0)","(1, 0)","(0, 1)","(0, 0)","(0, 0)"
150,8.0,135_bottom_d,False,,,,,False,True,False,,,,up,down,"(0, 0)","(0, 0)","(1, 1)","(0, 0)","(0, 0)","(0, 0)","(0, 1)","(1, 0)"
