trial,ball_speed,interactor,bounce,bounce_moment,random_bounce_direction,target_onset,speed_change,ball_change,abs_congruent,sim_congruent,response,accuracy,rt,start_pos,end_pos,abs_rfup,abs_rfright,abs_rfdown,abs_rfleft,sim_rfup,sim_rfright,sim_rfdown,sim_rfleft
1,8.5,none_l,True,,left,3.7297446250449866,faster,True,False,False,,False,,right,down,"(0, 0)","(0, 0)","(0, 1)","(1, 0)","(0, 0)","(0, 0)","(0, 1)","(1, 0)"
2,7.5,none_d,True,,right,,,False,False,False,,,,up,left,"(0, 0)","(0, 0)","(1, 0)","(0, 1)","(0, 0)","(0, 0)","(1, 0)","(0, 1)"
3,8.0,none_l,False,,,,,False,True,True,,,,right,left,"(0, 0)","(0, 0)","(0, 0)","(1, 1)","(0, 0)","(0, 0)","(0, 0)","(1, 1)"
4,8.0,45_top_u,False,,,3.7217053750064224,slower,True,True,False,up,True,0.5664329583523795,down,up,"(1, 1)","(0, 0)","(0, 0)","(0, 0)","(0, 1)","(0, 0)","(0, 0)","(1, 0)"
5,8.5,45_bottom_d,True,3.6294021249050274,,3.734532166738063,faster,True,False,True,right,True,0.5521300415275618,up,right,"(0, 0)","(0, 1)","(1, 0)","(0, 0)","(0, 0)","(1, 1)","(0, 0)","(0, 0)"
6,8.5,none_d,True,,right,,,False,False,False,,,,up,left,"(0, 0)","(0, 0)","(1, 0)","(0, 1)","(0, 0)","(0, 0)","(1, 0)","(0, 1)"
7,8.0,45_bottom_d,False,,,,,False,True,False,down,False,0.5672041249927133,up,down,"(0, 0)","(0, 0)","(1, 1)","(0, 0)","(0, 0)","(1, 0)","(0, 1)","(0, 0)"
8,8.5,none_u,True,,left,3.7175945000490174,slower,True,False,False,,False,,down,left,"(1, 0)","(0, 0)","(0, 0)","(0, 1)","(1, 0)","(0, 0)","(0, 0)","(0, 1)"
9,8.0,none_r,False,,,3.721807708381675,faster,True,True,True,right,True,0.5277532082982361,left,right,"(0, 0)","(1, 1)","(0, 0)","(0, 0)","(0, 0)","(1, 1)","(0, 0)","(0, 0)"
10,7.5,45_top_u,True,3.6212492916965857,,3.726149791618809,faster,True,False,True,left,True,0.4881467918166891,down,left,"(1, 0)","(0, 0)","(0, 0)","(0, 1)","(0, 0)","(0, 0)","(0, 0)","(1, 1)"
11,7.5,none_r,True,,right,3.719542625010945,slower,True,False,False,,False,,left,down,"(0, 0)","(1, 0)","(0, 1)","(0, 0)","(0, 0)","(1, 0)","(0, 1)","(0, 0)"
12,8.0,45_bottom_l,False,,,3.7168619168223813,slower,True,True,False,left,True,0.5499877500114962,right,left,"(0, 0)","(0, 0)","(0, 0)","(1, 1)","(1, 0)","(0, 0)","(0, 0)","(0, 1)"
13,7.5,none_r,False,,,3.7226726250955835,slower,True,True,True,right,True,0.5083899167366326,left,right,"(0, 0)","(1, 1)","(0, 0)","(0, 0)","(0, 0)","(1, 1)","(0, 0)","(0, 0)"
14,7.5,135_top_u,False,,,,,False,True,False,,,,down,up,"(1, 1)","(0, 0)","(0, 0)","(0, 0)","(0, 1)","(1, 0)","(0, 0)","(0, 0)"
15,7.5,none_r,True,,right,,,False,False,False,,,,left,down,"(0, 0)","(1, 0)","(0, 1)","(0, 0)","(0, 0)","(1, 0)","(0, 1)","(0, 0)"
16,7.5,45_top_r,False,,,,,False,True,False,,,,left,right,"(0, 0)","(1, 1)","(0, 0)","(0, 0)","(0, 0)","(0, 1)","(1, 0)","(0, 0)"
17,8.5,135_bottom_d,False,,,,,False,True,False,,,,up,down,"(0, 0)","(0, 0)","(1, 1)","(0, 0)","(0, 0)","(0, 0)","(0, 1)","(1, 0)"
18,8.0,135_top_u,True,3.6211847083177418,,,,False,False,True,,,,down,right,"(1, 0)","(0, 1)","(0, 0)","(0, 0)","(0, 0)","(1, 1)","(0, 0)","(0, 0)"
19,8.0,135_bottom_r,False,,,,,False,True,False,,,,left,right,"(0, 0)","(1, 1)","(0, 0)","(0, 0)","(1, 0)","(0, 1)","(0, 0)","(0, 0)"
20,8.5,135_bottom_r,False,,,,,False,True,False,,,,left,right,"(0, 0)","(1, 1)","(0, 0)","(0, 0)","(1, 0)","(0, 1)","(0, 0)","(0, 0)"
21,8.0,45_bottom_l,True,3.6136562500614673,,3.7189957500668243,faster,True,False,True,up,True,0.5707007499877363,right,up,"(0, 1)","(0, 0)","(0, 0)","(1, 0)","(1, 1)","(0, 0)","(0, 0)","(0, 0)"
22,8.0,135_top_l,True,3.615909375017509,,3.7205669166287407,slower,True,False,True,down,True,0.5499062084127218,right,down,"(0, 0)","(0, 0)","(0, 1)","(1, 0)","(0, 0)","(0, 0)","(1, 1)","(0, 0)"
23,8.5,135_bottom_d,False,,,3.720061625004746,faster,True,True,False,down,True,0.5297914166003466,up,down,"(0, 0)","(0, 0)","(1, 1)","(0, 0)","(0, 0)","(0, 0)","(0, 1)","(1, 0)"
24,7.5,none_u,True,,left,,,False,False,False,,,,down,left,"(1, 0)","(0, 0)","(0, 0)","(0, 1)","(1, 0)","(0, 0)","(0, 0)","(0, 1)"
25,8.0,135_top_l,False,,,,,False,True,False,,,,right,left,"(0, 0)","(0, 0)","(0, 0)","(1, 1)","(0, 0)","(0, 0)","(1, 0)","(0, 1)"
26,7.5,45_top_r,True,3.62811699998565,,,,False,False,True,,,,left,down,"(0, 0)","(1, 0)","(0, 1)","(0, 0)","(0, 0)","(0, 0)","(1, 1)","(0, 0)"
27,8.5,none_u,True,,left,,,False,False,False,,,,down,left,"(1, 0)","(0, 0)","(0, 0)","(0, 1)","(1, 0)","(0, 0)","(0, 0)","(0, 1)"
28,8.0,none_l,False,,,,,False,True,True,left,False,0.6316749583929777,right,left,"(0, 0)","(0, 0)","(0, 0)","(1, 1)","(0, 0)","(0, 0)","(0, 0)","(1, 1)"
29,8.5,none_d,False,,,3.7226186249172315,faster,True,True,True,down,True,0.6119475417071953,up,down,"(0, 0)","(0, 0)","(1, 1)","(0, 0)","(0, 0)","(0, 0)","(1, 1)","(0, 0)"
30,8.5,none_d,False,,,3.7223424582043663,slower,True,True,True,down,True,0.5698627084493637,up,down,"(0, 0)","(0, 0)","(1, 1)","(0, 0)","(0, 0)","(0, 0)","(1, 1)","(0, 0)"
31,7.5,none_u,True,,left,3.718741124961525,slower,True,False,False,,False,,down,left,"(1, 0)","(0, 0)","(0, 0)","(0, 1)","(1, 0)","(0, 0)","(0, 0)","(0, 1)"
32,7.5,none_l,True,,left,3.716712124994956,faster,True,False,False,,False,,right,down,"(0, 0)","(0, 0)","(0, 1)","(1, 0)","(0, 0)","(0, 0)","(0, 1)","(1, 0)"
