trial_type,trial,ball_speed,ball_start_color,ball_color_change,interactor,bounce,bounce_moment,random_bounce_direction,target_onset,ball_change,target_color,abs_congruent,sim_congruent,response,accuracy,rt,start_pos,end_pos,abs_rfup,abs_rfright,abs_rfdown,abs_rfleft,sim_rfup,sim_rfright,sim_rfdown,sim_rfleft
interactor,1,9.043861408969075,0.07875547825094739,0.4,135_bottom_d,False,,,3.9509168999793474,True,"[0.47875547825094744, 0.47875547825094744, 0.47875547825094744]",True,False,lighter,True,0.46793590000015683,up,down,"(0, 0)","(0, 0)","(1, 1)","(0, 0)","(0, 0)","(0, 0)","(0, 1)","(1, 0)"
empty,2,9.048511393864473,0.16038226700217775,0.0,none_r,False,,,3.9414859999960754,True,"[0.16038226700217775, 0.16038226700217775, 0.16038226700217775]",True,True,darker,,0.48246410000137985,left,right,"(0, 0)","(1, 1)","(0, 0)","(0, 0)","(0, 0)","(1, 1)","(0, 0)","(0, 0)"
interactor,3,8.843904908477942,0.09699824092290035,0.2,45_bottom_l,True,3.625178100017365,,3.925508600019384,True,"[0.2969982409229004, 0.2969982409229004, 0.2969982409229004]",False,True,darker,False,0.5997060999798123,right,up,"(0, 1)","(0, 0)","(0, 0)","(1, 0)","(1, 1)","(0, 0)","(0, 0)","(0, 0)"
interactor,4,8.764082674925904,-0.09501975178013589,0.2,45_top_u,True,3.6243588000070304,,3.924704000004567,True,"[0.10498024821986413, 0.10498024821986413, 0.10498024821986413]",False,True,lighter,True,0.601538699993398,down,left,"(1, 0)","(0, 0)","(0, 0)","(0, 1)","(0, 0)","(0, 0)","(0, 0)","(1, 1)"
empty,5,8.637186945636138,-0.012161634655269565,-0.4,none_r,False,,,3.9405100000149105,True,"[-0.41216163465526956, -0.41216163465526956, -0.41216163465526956]",True,True,darker,True,0.45000089998939075,left,right,"(0, 0)","(1, 1)","(0, 0)","(0, 0)","(0, 0)","(1, 1)","(0, 0)","(0, 0)"
empty,6,8.948424033462071,0.1888281504666805,0.0,none_u,True,3.6245151000039186,right,3.925685499998508,True,"[0.1888281504666805, 0.1888281504666805, 0.1888281504666805]",False,False,lighter,,0.932505000004312,down,right,"(1, 0)","(0, 1)","(0, 0)","(0, 0)","(1, 0)","(0, 1)","(0, 0)","(0, 0)"
interactor,7,9.115658044532763,0.3950040641431938,0.0,135_top_u,False,,,3.939796299993759,True,"[0.3950040641431938, 0.3950040641431938, 0.3950040641431938]",True,False,lighter,,0.6333807999908458,down,up,"(1, 1)","(0, 0)","(0, 0)","(0, 0)","(0, 1)","(1, 0)","(0, 0)","(0, 0)"
interactor,8,8.918432777941867,0.17189801287126102,0.4,135_bottom_r,False,,,3.9423435000062454,True,"[0.5718980128712611, 0.5718980128712611, 0.5718980128712611]",True,False,lighter,True,0.6318784999893978,left,right,"(0, 0)","(1, 1)","(0, 0)","(0, 0)","(1, 0)","(0, 1)","(0, 0)","(0, 0)"
empty,9,9.13420590855816,0.008664697261895088,-0.2,none_d,False,,,3.9422303999890573,True,"[-0.19133530273810492, -0.19133530273810492, -0.19133530273810492]",True,True,darker,True,0.5508740000077523,up,down,"(0, 0)","(0, 0)","(1, 1)","(0, 0)","(0, 0)","(0, 0)","(1, 1)","(0, 0)"
empty,10,8.771844029314275,-0.024386335419212257,-0.2,none_l,True,3.625100100005511,right,3.925408100010827,True,"[-0.22438633541921227, -0.22438633541921227, -0.22438633541921227]",False,False,darker,True,0.5822508999845013,right,up,"(0, 1)","(0, 0)","(0, 0)","(1, 0)","(0, 1)","(0, 0)","(0, 0)","(1, 0)"
empty,11,8.9303396347986,0.024731876294658228,-0.4,none_r,True,3.6256668000132777,left,3.9257835999887902,True,"[-0.3752681237053418, -0.3752681237053418, -0.3752681237053418]",False,False,space,,,left,up,"(0, 1)","(1, 0)","(0, 0)","(0, 0)","(0, 1)","(1, 0)","(0, 0)","(0, 0)"
empty,12,8.864901288862672,-0.008072036881659778,-0.4,none_d,True,3.6254744000034407,left,3.9247506000101566,True,"[-0.4080720368816598, -0.4080720368816598, -0.4080720368816598]",False,False,darker,True,0.4842633999942336,up,right,"(0, 0)","(0, 1)","(1, 0)","(0, 0)","(0, 0)","(0, 1)","(1, 0)","(0, 0)"
interactor,13,9.42445789233481,0.19885006291508717,-0.4,135_top_u,True,3.6240155000123195,,3.9412946000229567,True,"[-0.20114993708491286, -0.20114993708491286, -0.20114993708491286]",False,True,darker,True,0.6662559999967925,down,right,"(1, 0)","(0, 1)","(0, 0)","(0, 0)","(0, 0)","(1, 1)","(0, 0)","(0, 0)"
interactor,14,8.721473136103134,0.24264868482802116,-0.4,45_bottom_d,True,3.6240588999935426,,3.923539700015681,True,"[-0.15735131517197887, -0.15735131517197887, -0.15735131517197887]",False,True,lighter,False,0.7336664999893401,up,right,"(0, 0)","(0, 1)","(1, 0)","(0, 0)","(0, 0)","(1, 1)","(0, 0)","(0, 0)"
empty,15,9.002384518675942,0.10616124733479412,0.0,none_l,False,,,3.941314499999862,True,"[0.10616124733479412, 0.10616124733479412, 0.10616124733479412]",True,True,lighter,,0.4674200000008568,right,left,"(0, 0)","(0, 0)","(0, 0)","(1, 1)","(0, 0)","(0, 0)","(0, 0)","(1, 1)"
empty,16,9.098178366070053,0.1629093635246759,-0.2,none_u,False,,,3.940532999986317,True,"[-0.037090636475324124, -0.037090636475324124, -0.037090636475324124]",True,True,darker,True,0.6506573999940883,down,up,"(1, 1)","(0, 0)","(0, 0)","(0, 0)","(1, 1)","(0, 0)","(0, 0)","(0, 0)"
empty,17,9.007439288741324,-0.024221600310179836,0.4,none_u,True,3.624983699992299,right,3.9247773999813944,True,"[0.3757783996898202, 0.3757783996898202, 0.3757783996898202]",False,False,lighter,True,0.5829863999970257,down,right,"(1, 0)","(0, 1)","(0, 0)","(0, 0)","(1, 0)","(0, 1)","(0, 0)","(0, 0)"
interactor,18,8.66363393929813,0.038025455683689036,0.0,45_top_r,False,,,3.94192560002557,True,"[0.038025455683689036, 0.038025455683689036, 0.038025455683689036]",True,False,lighter,,0.7660170999879483,left,right,"(0, 0)","(1, 1)","(0, 0)","(0, 0)","(0, 0)","(0, 1)","(1, 0)","(0, 0)"
interactor,19,8.684784754663324,0.226808879308864,0.0,45_top_r,True,3.625100100005511,,3.9256093000003602,True,"[0.226808879308864, 0.226808879308864, 0.226808879308864]",False,True,lighter,,0.48323579999851063,left,down,"(0, 0)","(1, 0)","(0, 1)","(0, 0)","(0, 0)","(0, 0)","(1, 1)","(0, 0)"
interactor,20,9.413677122882808,0.06953561913696021,-0.4,135_top_l,False,,,3.957730599999195,True,"[-0.3304643808630398, -0.3304643808630398, -0.3304643808630398]",True,False,darker,True,0.6495160000049509,right,left,"(0, 0)","(0, 0)","(0, 0)","(1, 1)","(0, 0)","(0, 0)","(1, 0)","(0, 1)"
