,trial_type,trial,ball_speed,ball_start_color,ball_color_change,interactor,bounce,bounce_moment,random_bounce_direction,target_onset,ball_change,target_color,abs_congruent,sim_congruent,response,accuracy,rt,start_pos,end_pos,abs_rfup,abs_rfright,abs_rfdown,abs_rfleft,sim_rfup,sim_rfright,sim_rfdown,sim_rfleft
0,empty,1,8.740714780164119,0.340008656259275,0.35,none_l,True,3.636759599961806,right,3.9542087999871,True,"[0.690008656259275, 0.690008656259275, 0.690008656259275]",False,False,lighter,True,0.451026999973692,right,up,"(0, 1)","(0, 0)","(0, 0)","(1, 0)","(0, 1)","(0, 0)","(0, 0)","(1, 0)"
1,interactor,2,9.067638788582062,-0.006396521909854347,-0.35,135_top_u,True,3.6582084999536164,,3.9746007999638095,True,"[-0.3563965219098543, -0.3563965219098543, -0.3563965219098543]",False,True,darker,True,0.5005699000321329,down,right,"(1, 0)","(0, 1)","(0, 0)","(0, 0)","(0, 0)","(1, 1)","(0, 0)","(0, 0)"
2,interactor,3,8.934810181478884,-0.069691250996543,0.175,135_top_u,False,,,3.966491799976211,True,"[0.10530874900345699, 0.10530874900345699, 0.10530874900345699]",True,False,lighter,True,0.4658432000433095,down,up,"(1, 1)","(0, 0)","(0, 0)","(0, 0)","(0, 1)","(1, 0)","(0, 0)","(0, 0)"
3,interactor,4,8.937854955783223,0.5073832130134608,-0.175,45_top_r,True,3.6476526000187732,,3.965377599990461,True,"[0.3323832130134608, 0.3323832130134608, 0.3323832130134608]",False,True,lighter,False,0.5005536000244319,left,down,"(0, 0)","(1, 0)","(0, 1)","(0, 0)","(0, 0)","(0, 0)","(1, 1)","(0, 0)"
4,empty,5,8.808794987364067,0.288118311502981,0.35,none_l,True,3.632976500026416,right,3.9496848999988288,True,"[0.6381183115029809, 0.6381183115029809, 0.6381183115029809]",False,False,lighter,True,0.6161450000363402,right,up,"(0, 1)","(0, 0)","(0, 0)","(1, 0)","(0, 1)","(0, 0)","(0, 0)","(1, 0)"
5,empty,6,8.999299155488222,0.639139248343247,0.35,none_d,False,,,3.9671610000077635,True,"[0.989139248343247, 0.989139248343247, 0.989139248343247]",True,True,lighter,True,0.566713499953039,up,down,"(0, 0)","(0, 0)","(1, 1)","(0, 0)","(0, 0)","(0, 0)","(1, 1)","(0, 0)"
6,interactor,7,8.747824308525562,0.08234972145444831,0.0,135_top_u,False,,,3.964981000055559,True,"[0.08234972145444831, 0.08234972145444831, 0.08234972145444831]",True,False,darker,,0.6679095999570563,down,up,"(1, 1)","(0, 0)","(0, 0)","(0, 0)","(0, 1)","(1, 0)","(0, 0)","(0, 0)"
7,empty,8,8.79065766768716,0.11511836371930881,-0.175,none_u,True,3.633346199989319,right,3.9495266000158153,True,"[-0.05988163628069118, -0.05988163628069118, -0.05988163628069118]",False,False,lighter,False,0.7337937999982387,down,right,"(1, 0)","(0, 1)","(0, 0)","(0, 0)","(1, 0)","(0, 1)","(0, 0)","(0, 0)"
8,interactor,9,8.882557979438353,0.10999946150691046,0.175,45_bottom_d,True,3.6501284000114538,,3.9667822999763303,True,"[0.28499946150691047, 0.28499946150691047, 0.28499946150691047]",False,True,lighter,True,0.4504509000107646,up,right,"(0, 0)","(0, 1)","(1, 0)","(0, 0)","(0, 0)","(1, 1)","(0, 0)","(0, 0)"
9,interactor,10,9.033860565561284,0.1370158040527765,-0.175,135_top_l,False,,,3.9663513000123203,True,"[-0.03798419594722349, -0.03798419594722349, -0.03798419594722349]",True,False,darker,True,0.5498487000004388,right,left,"(0, 0)","(0, 0)","(0, 0)","(1, 1)","(0, 0)","(0, 0)","(1, 0)","(0, 1)"
10,empty,11,9.154726890182014,0.4743015320618944,0.0,none_r,True,3.651022700010799,right,3.96673909999663,True,"[0.4743015320618944, 0.4743015320618944, 0.4743015320618944]",False,False,lighter,,0.6000194000080228,left,down,"(0, 0)","(1, 0)","(0, 1)","(0, 0)","(0, 0)","(1, 0)","(0, 1)","(0, 0)"
11,interactor,12,8.823734139350348,0.042647289225938856,-0.175,135_bottom_d,False,,,3.9667377000441775,True,"[-0.13235271077406113, -0.13235271077406113, -0.13235271077406113]",True,False,darker,True,0.6499991999589838,up,down,"(0, 0)","(0, 0)","(1, 1)","(0, 0)","(0, 0)","(0, 0)","(0, 1)","(1, 0)"
12,empty,13,9.23520551444569,-0.03296845274513349,0.0,none_d,True,3.6499974000034854,left,3.96711620001588,True,"[-0.03296845274513349, -0.03296845274513349, -0.03296845274513349]",False,False,lighter,,0.4992759999586269,up,right,"(0, 0)","(0, 1)","(1, 0)","(0, 0)","(0, 0)","(0, 1)","(1, 0)","(0, 0)"
13,empty,14,9.16159718511929,-0.038578057803553195,-0.35,none_u,False,,,3.9674406000413,True,"[-0.38857805780355315, -0.38857805780355315, -0.38857805780355315]",True,True,darker,True,0.5499869999475777,down,up,"(1, 1)","(0, 0)","(0, 0)","(0, 0)","(1, 1)","(0, 0)","(0, 0)","(0, 0)"
14,empty,15,8.969845642872603,-0.077030873971217,0.175,none_l,True,3.6491217000293545,right,3.9667579000233673,True,"[0.097969126028783, 0.097969126028783, 0.097969126028783]",False,False,lighter,True,0.4501428999938071,right,up,"(0, 1)","(0, 0)","(0, 0)","(1, 0)","(0, 1)","(0, 0)","(0, 0)","(1, 0)"
15,empty,16,9.15039329168369,0.15146039350910373,0.35,none_r,False,,,3.9653394000488333,True,"[0.5014603935091038, 0.5014603935091038, 0.5014603935091038]",True,True,lighter,True,0.4860159999807365,left,right,"(0, 0)","(1, 1)","(0, 0)","(0, 0)","(0, 0)","(1, 1)","(0, 0)","(0, 0)"
16,empty,17,8.759814078428771,0.12073480055660747,0.175,none_d,False,,,3.9665938999969512,True,"[0.29573480055660745, 0.29573480055660745, 0.29573480055660745]",True,True,lighter,True,0.5501973000355065,up,down,"(0, 0)","(0, 0)","(1, 1)","(0, 0)","(0, 0)","(0, 0)","(1, 1)","(0, 0)"
17,interactor,18,9.265944733222646,0.18178875621681123,0.175,135_top_l,False,,,3.965909299964551,True,"[0.3567887562168112, 0.3567887562168112, 0.3567887562168112]",True,False,lighter,True,0.6182438000105321,right,left,"(0, 0)","(0, 0)","(0, 0)","(1, 1)","(0, 0)","(0, 0)","(1, 0)","(0, 1)"
18,interactor,19,8.765335412983744,-0.00764991192573658,0.0,135_top_u,False,,,3.965726900030859,True,"[-0.00764991192573658, -0.00764991192573658, -0.00764991192573658]",True,False,darker,,0.5672526999842376,down,up,"(1, 1)","(0, 0)","(0, 0)","(0, 0)","(0, 1)","(1, 0)","(0, 0)","(0, 0)"
19,empty,20,8.827794092442268,0.2898452055437851,0.0,none_l,False,,,3.966686200001277,True,"[0.2898452055437851, 0.2898452055437851, 0.2898452055437851]",True,True,lighter,,0.48311869997996837,right,left,"(0, 0)","(0, 0)","(0, 0)","(1, 1)","(0, 0)","(0, 0)","(0, 0)","(1, 1)"
20,empty,21,9.223614870608857,0.3694385986916189,0.35,none_r,True,3.6484537000069395,right,3.9660200000507757,True,"[0.7194385986916189, 0.7194385986916189, 0.7194385986916189]",False,False,lighter,True,0.5661056999815628,left,down,"(0, 0)","(1, 0)","(0, 1)","(0, 0)","(0, 0)","(1, 0)","(0, 1)","(0, 0)"
21,interactor,22,9.024923987658262,0.09188012154695907,0.0,135_top_l,False,,,3.965835299983155,True,"[0.09188012154695907, 0.09188012154695907, 0.09188012154695907]",True,False,darker,,0.6514270000043325,right,left,"(0, 0)","(0, 0)","(0, 0)","(1, 1)","(0, 0)","(0, 0)","(1, 0)","(0, 1)"
22,empty,23,8.90645245369037,0.2229523228327958,0.35,none_d,True,3.6507221999927424,left,3.967350799997803,True,"[0.5729523228327957, 0.5729523228327957, 0.5729523228327957]",False,False,lighter,True,0.5164167999755591,up,right,"(0, 0)","(0, 1)","(1, 0)","(0, 0)","(0, 0)","(0, 1)","(1, 0)","(0, 0)"
23,interactor,24,8.955067307188703,0.246317430059493,0.175,135_bottom_d,True,3.6500723999924958,,3.9654419999569654,True,"[0.42131743005949296, 0.42131743005949296, 0.42131743005949296]",False,True,lighter,True,0.4339244000148028,up,left,"(0, 0)","(0, 0)","(1, 0)","(0, 1)","(0, 0)","(0, 0)","(0, 0)","(1, 1)"
24,empty,25,9.34965665883054,0.31297781858419116,-0.35,none_d,False,,,3.967576699971687,True,"[-0.03702218141580882, -0.03702218141580882, -0.03702218141580882]",True,True,darker,True,0.4998005999950692,up,down,"(0, 0)","(0, 0)","(1, 1)","(0, 0)","(0, 0)","(0, 0)","(1, 1)","(0, 0)"
25,empty,26,9.25461148739346,0.09404688240806264,-0.35,none_u,True,3.6504208999685943,right,3.9659955999813974,True,"[-0.25595311759193734, -0.25595311759193734, -0.25595311759193734]",False,False,darker,True,0.5340863000019453,down,right,"(1, 0)","(0, 1)","(0, 0)","(0, 0)","(1, 0)","(0, 1)","(0, 0)","(0, 0)"
26,empty,27,8.845308153005686,0.056473116487751024,0.0,none_d,False,,,3.9666216999758035,True,"[0.056473116487751024, 0.056473116487751024, 0.056473116487751024]",True,True,darker,,0.7162891000043601,up,down,"(0, 0)","(0, 0)","(1, 1)","(0, 0)","(0, 0)","(0, 0)","(1, 1)","(0, 0)"
27,empty,28,8.746240667399732,0.012142025092868297,0.0,none_u,False,,,3.96585670002969,True,"[0.012142025092868297, 0.012142025092868297, 0.012142025092868297]",True,True,darker,,0.5666308999643661,down,up,"(1, 1)","(0, 0)","(0, 0)","(0, 0)","(1, 1)","(0, 0)","(0, 0)","(0, 0)"
28,interactor,29,8.880867425517817,0.27738986235103236,-0.35,135_top_l,True,3.6487131000030786,,3.965837099996861,True,"[-0.07261013764896762, -0.07261013764896762, -0.07261013764896762]",False,True,darker,True,0.43457979999948293,right,down,"(0, 0)","(0, 0)","(0, 1)","(1, 0)","(0, 0)","(0, 0)","(1, 1)","(0, 0)"
29,interactor,30,9.325569954118164,0.33677156269789116,-0.175,135_bottom_d,False,,,3.96636199997738,True,"[0.16177156269789117, 0.16177156269789117, 0.16177156269789117]",True,False,lighter,False,0.6664690000470728,up,down,"(0, 0)","(0, 0)","(1, 1)","(0, 0)","(0, 0)","(0, 0)","(0, 1)","(1, 0)"
