trial,ball_speed,interactor,bounce,bounce_moment,random_bounce_direction,target_onset,speed_change,ball_change,abs_congruent,sim_congruent,response,accuracy,rt,start_pos,end_pos,abs_rfup,abs_rfright,abs_rfdown,abs_rfleft,sim_rfup,sim_rfright,sim_rfdown,sim_rfleft
1,8.0,135_bottom_r,True,3.70025962498039,,3.8039832083741203,slower,True,False,True,,False,,left,up,"(0, 1)","(1, 0)","(0, 0)","(0, 0)","(1, 1)","(0, 0)","(0, 0)","(0, 0)"
2,8.0,45_top_r,True,3.6175838332856074,,,,False,False,True,,,,left,down,"(0, 0)","(1, 0)","(0, 1)","(0, 0)","(0, 0)","(0, 0)","(1, 1)","(0, 0)"
3,8.5,none_u,True,,right,,,False,False,False,,,,down,right,"(1, 0)","(0, 1)","(0, 0)","(0, 0)","(1, 0)","(0, 1)","(0, 0)","(0, 0)"
4,8.5,none_l,True,,left,3.72642049996648,faster,True,False,False,,False,,right,down,"(0, 0)","(0, 0)","(0, 1)","(1, 0)","(0, 0)","(0, 0)","(0, 1)","(1, 0)"
5,7.5,135_bottom_r,False,,,,,False,True,False,,,,left,right,"(0, 0)","(1, 1)","(0, 0)","(0, 0)","(1, 0)","(0, 1)","(0, 0)","(0, 0)"
6,8.0,45_bottom_l,True,3.632472833385691,,,,False,False,True,,,,right,up,"(0, 1)","(0, 0)","(0, 0)","(1, 0)","(1, 1)","(0, 0)","(0, 0)","(0, 0)"
7,8.0,none_u,True,,left,,,False,False,False,,,,down,left,"(1, 0)","(0, 0)","(0, 0)","(0, 1)","(1, 0)","(0, 0)","(0, 0)","(0, 1)"
8,8.5,none_l,True,,right,,,False,False,False,,,,right,up,"(0, 1)","(0, 0)","(0, 0)","(1, 0)","(0, 1)","(0, 0)","(0, 0)","(1, 0)"
9,8.0,none_r,False,,,,,False,True,True,,,,left,right,"(0, 0)","(1, 1)","(0, 0)","(0, 0)","(0, 0)","(1, 1)","(0, 0)","(0, 0)"
10,7.5,45_top_r,True,3.62153654161375,,3.726896750042215,faster,True,False,True,down,True,1.0722342499066144,left,down,"(0, 0)","(1, 0)","(0, 1)","(0, 0)","(0, 0)","(0, 0)","(1, 1)","(0, 0)"
11,8.5,135_bottom_d,False,,,,,False,True,False,,,,up,down,"(0, 0)","(0, 0)","(1, 1)","(0, 0)","(0, 0)","(0, 0)","(0, 1)","(1, 0)"
12,8.5,45_top_u,False,,,3.7226534583605826,slower,True,True,False,up,True,0.8706536249956116,down,up,"(1, 1)","(0, 0)","(0, 0)","(0, 0)","(0, 1)","(0, 0)","(0, 0)","(1, 0)"
13,8.0,45_top_r,True,3.6208749583456665,,3.7254343333188444,slower,True,False,True,down,True,0.8014298334019259,left,down,"(0, 0)","(1, 0)","(0, 1)","(0, 0)","(0, 0)","(0, 0)","(1, 1)","(0, 0)"
14,8.0,135_top_u,False,,,3.7229595415992662,slower,True,True,False,up,True,0.766812291694805,down,up,"(1, 1)","(0, 0)","(0, 0)","(0, 0)","(0, 1)","(1, 0)","(0, 0)","(0, 0)"
15,8.0,45_bottom_l,False,,,3.7213937082560733,faster,True,True,False,left,True,0.9333620000397786,right,left,"(0, 0)","(0, 0)","(0, 0)","(1, 1)","(1, 0)","(0, 0)","(0, 0)","(0, 1)"
16,7.5,45_top_u,False,,,3.7225887500680983,slower,True,True,False,up,True,0.9987076666438952,down,up,"(1, 1)","(0, 0)","(0, 0)","(0, 0)","(0, 1)","(0, 0)","(0, 0)","(1, 0)"
17,7.5,none_r,False,,,3.7212880415609106,faster,True,True,True,,False,,left,right,"(0, 0)","(1, 1)","(0, 0)","(0, 0)","(0, 0)","(1, 1)","(0, 0)","(0, 0)"
18,8.5,none_d,True,,right,3.7213173750787973,faster,True,False,False,,False,,up,left,"(0, 0)","(0, 0)","(1, 0)","(0, 1)","(0, 0)","(0, 0)","(1, 0)","(0, 1)"
19,8.0,135_top_l,False,,,,,False,True,False,,,,right,left,"(0, 0)","(0, 0)","(0, 0)","(1, 1)","(0, 0)","(0, 0)","(1, 0)","(0, 1)"
20,8.0,45_bottom_d,True,3.613597125047818,,3.7194584166863933,faster,True,False,True,right,True,1.0360270834062248,up,right,"(0, 0)","(0, 1)","(1, 0)","(0, 0)","(0, 0)","(1, 1)","(0, 0)","(0, 0)"
21,8.5,45_bottom_d,False,,,3.7274187500588596,faster,True,True,False,down,True,1.0229283749358729,up,down,"(0, 0)","(0, 0)","(1, 1)","(0, 0)","(0, 0)","(1, 0)","(0, 1)","(0, 0)"
22,7.5,none_r,False,,,,,False,True,True,,,,left,right,"(0, 0)","(1, 1)","(0, 0)","(0, 0)","(0, 0)","(1, 1)","(0, 0)","(0, 0)"
23,8.0,45_top_r,True,3.6137587499106303,,,,False,False,True,,,,left,down,"(0, 0)","(1, 0)","(0, 1)","(0, 0)","(0, 0)","(0, 0)","(1, 1)","(0, 0)"
24,8.0,45_top_u,True,3.620068291667849,,,,False,False,True,,,,down,left,"(1, 0)","(0, 0)","(0, 0)","(0, 1)","(0, 0)","(0, 0)","(0, 0)","(1, 1)"
25,8.0,none_l,True,,left,,,False,False,False,,,,right,down,"(0, 0)","(0, 0)","(0, 1)","(1, 0)","(0, 0)","(0, 0)","(0, 1)","(1, 0)"
26,8.0,45_bottom_d,True,3.614596708328463,,,,False,False,True,,,,up,right,"(0, 0)","(0, 1)","(1, 0)","(0, 0)","(0, 0)","(1, 1)","(0, 0)","(0, 0)"
27,8.0,none_u,False,,,3.724308666656725,faster,True,True,True,up,True,1.089973916648887,down,up,"(1, 1)","(0, 0)","(0, 0)","(0, 0)","(1, 1)","(0, 0)","(0, 0)","(0, 0)"
28,7.5,45_top_r,True,3.6648664999520406,,3.7694097915664315,slower,True,False,True,down,True,0.8244796249782667,left,down,"(0, 0)","(1, 0)","(0, 1)","(0, 0)","(0, 0)","(0, 0)","(1, 1)","(0, 0)"
29,8.5,none_d,True,,left,,,False,False,False,,,,up,right,"(0, 0)","(0, 1)","(1, 0)","(0, 0)","(0, 0)","(0, 1)","(1, 0)","(0, 0)"
30,8.0,135_bottom_d,False,,,,,False,True,False,,,,up,down,"(0, 0)","(0, 0)","(1, 1)","(0, 0)","(0, 0)","(0, 0)","(0, 1)","(1, 0)"
31,8.5,45_bottom_d,False,,,3.7187485416652635,faster,True,True,False,down,True,0.8265801249071956,up,down,"(0, 0)","(0, 0)","(1, 1)","(0, 0)","(0, 0)","(1, 0)","(0, 1)","(0, 0)"
32,7.5,none_u,False,,,3.714935874915682,slower,True,True,True,up,True,0.7197616666089743,down,up,"(1, 1)","(0, 0)","(0, 0)","(0, 0)","(1, 1)","(0, 0)","(0, 0)","(0, 0)"
33,8.0,none_d,False,,,3.716866666567512,faster,True,True,True,,False,,up,down,"(0, 0)","(0, 0)","(1, 1)","(0, 0)","(0, 0)","(0, 0)","(1, 1)","(0, 0)"
34,8.5,45_bottom_l,False,,,,,False,True,False,,,,right,left,"(0, 0)","(0, 0)","(0, 0)","(1, 1)","(1, 0)","(0, 0)","(0, 0)","(0, 1)"
35,8.0,135_bottom_r,False,,,,,False,True,False,,,,left,right,"(0, 0)","(1, 1)","(0, 0)","(0, 0)","(1, 0)","(0, 1)","(0, 0)","(0, 0)"
36,8.5,none_l,True,,left,3.7204101249808446,slower,True,False,False,,False,,right,down,"(0, 0)","(0, 0)","(0, 1)","(1, 0)","(0, 0)","(0, 0)","(0, 1)","(1, 0)"
37,7.5,none_r,False,,,,,False,True,True,,,,left,right,"(0, 0)","(1, 1)","(0, 0)","(0, 0)","(0, 0)","(1, 1)","(0, 0)","(0, 0)"
38,7.5,45_bottom_l,False,,,,,False,True,False,,,,right,left,"(0, 0)","(0, 0)","(0, 0)","(1, 1)","(1, 0)","(0, 0)","(0, 0)","(0, 1)"
39,8.5,135_top_l,False,,,3.720201999996789,slower,True,True,False,left,True,0.941560999955982,right,left,"(0, 0)","(0, 0)","(0, 0)","(1, 1)","(0, 0)","(0, 0)","(1, 0)","(0, 1)"
40,8.5,135_top_u,False,,,3.7238009999273345,faster,True,True,False,up,True,0.9301994583802298,down,up,"(1, 1)","(0, 0)","(0, 0)","(0, 0)","(0, 1)","(1, 0)","(0, 0)","(0, 0)"
41,8.5,135_bottom_d,False,,,,,False,True,False,,,,up,down,"(0, 0)","(0, 0)","(1, 1)","(0, 0)","(0, 0)","(0, 0)","(0, 1)","(1, 0)"
42,8.0,135_top_u,True,3.618702125037089,,,,False,False,True,,,,down,right,"(1, 0)","(0, 1)","(0, 0)","(0, 0)","(0, 0)","(1, 1)","(0, 0)","(0, 0)"
43,8.0,135_top_l,True,3.6249267499661073,,3.729281625011936,slower,True,False,True,down,True,0.8683262083213776,right,down,"(0, 0)","(0, 0)","(0, 1)","(1, 0)","(0, 0)","(0, 0)","(1, 1)","(0, 0)"
44,8.5,45_top_r,True,3.6155808334005997,,3.720090708346106,slower,True,False,True,down,True,0.7615893749753013,left,down,"(0, 0)","(1, 0)","(0, 1)","(0, 0)","(0, 0)","(0, 0)","(1, 1)","(0, 0)"
45,8.5,135_top_u,False,,,3.720003958325833,faster,True,True,False,up,True,0.9953022917034104,down,up,"(1, 1)","(0, 0)","(0, 0)","(0, 0)","(0, 1)","(1, 0)","(0, 0)","(0, 0)"
46,8.0,135_top_u,False,,,,,False,True,False,,,,down,up,"(1, 1)","(0, 0)","(0, 0)","(0, 0)","(0, 1)","(1, 0)","(0, 0)","(0, 0)"
47,8.5,135_bottom_r,False,,,,,False,True,False,,,,left,right,"(0, 0)","(1, 1)","(0, 0)","(0, 0)","(1, 0)","(0, 1)","(0, 0)","(0, 0)"
48,8.5,none_u,False,,,,,False,True,True,,,,down,up,"(1, 1)","(0, 0)","(0, 0)","(0, 0)","(1, 1)","(0, 0)","(0, 0)","(0, 0)"
49,8.0,135_top_l,True,3.6215687500080094,,,,False,False,True,,,,right,down,"(0, 0)","(0, 0)","(0, 1)","(1, 0)","(0, 0)","(0, 0)","(1, 1)","(0, 0)"
50,8.5,45_top_r,False,,,3.7289577500196174,slower,True,True,False,right,True,0.9525588331744075,left,right,"(0, 0)","(1, 1)","(0, 0)","(0, 0)","(0, 0)","(0, 1)","(1, 0)","(0, 0)"
51,8.0,45_bottom_l,True,3.625440333154984,,3.7308458749903366,slower,True,False,True,up,True,0.7643507082248107,right,up,"(0, 1)","(0, 0)","(0, 0)","(1, 0)","(1, 1)","(0, 0)","(0, 0)","(0, 0)"
52,7.5,135_bottom_d,False,,,3.725170625024475,faster,True,True,False,down,True,0.8239767083432525,up,down,"(0, 0)","(0, 0)","(1, 1)","(0, 0)","(0, 0)","(0, 0)","(0, 1)","(1, 0)"
53,8.0,135_bottom_d,True,3.6231383332051337,,3.728544333251193,slower,True,False,True,left,True,1.015462249983102,up,left,"(0, 0)","(0, 0)","(1, 0)","(0, 1)","(0, 0)","(0, 0)","(0, 0)","(1, 1)"
54,8.0,none_r,True,,right,3.7263856667559594,slower,True,False,False,,False,,left,down,"(0, 0)","(1, 0)","(0, 1)","(0, 0)","(0, 0)","(1, 0)","(0, 1)","(0, 0)"
55,8.0,45_top_u,True,3.6274064583703876,,3.733445291640237,faster,True,False,True,left,True,0.8345132917165756,down,left,"(1, 0)","(0, 0)","(0, 0)","(0, 1)","(0, 0)","(0, 0)","(0, 0)","(1, 1)"
56,8.0,135_top_u,False,,,,,False,True,False,,,,down,up,"(1, 1)","(0, 0)","(0, 0)","(0, 0)","(0, 1)","(1, 0)","(0, 0)","(0, 0)"
57,7.5,none_r,False,,,3.7379104999126866,faster,True,True,True,right,True,0.8687230418436229,left,right,"(0, 0)","(1, 1)","(0, 0)","(0, 0)","(0, 0)","(1, 1)","(0, 0)","(0, 0)"
58,7.5,none_r,False,,,,,False,True,True,,,,left,right,"(0, 0)","(1, 1)","(0, 0)","(0, 0)","(0, 0)","(1, 1)","(0, 0)","(0, 0)"
59,8.5,none_u,False,,,3.7177266250364482,slower,True,True,True,up,True,0.9489150833105668,down,up,"(1, 1)","(0, 0)","(0, 0)","(0, 0)","(1, 1)","(0, 0)","(0, 0)","(0, 0)"
60,8.5,135_top_u,True,3.620270416722633,,3.725257374928333,slower,True,False,True,right,True,0.9494098334107548,down,right,"(1, 0)","(0, 1)","(0, 0)","(0, 0)","(0, 0)","(1, 1)","(0, 0)","(0, 0)"
61,8.5,135_top_l,True,3.623179708374664,,3.728582041687332,slower,True,False,True,down,True,1.4248030417365953,right,down,"(0, 0)","(0, 0)","(0, 1)","(1, 0)","(0, 0)","(0, 0)","(1, 1)","(0, 0)"
62,7.5,45_bottom_d,False,,,3.741497041657567,faster,True,True,False,,False,,up,down,"(0, 0)","(0, 0)","(1, 1)","(0, 0)","(0, 0)","(1, 0)","(0, 1)","(0, 0)"
63,8.0,45_bottom_d,True,3.614085875102319,,,,False,False,True,,,,up,right,"(0, 0)","(0, 1)","(1, 0)","(0, 0)","(0, 0)","(1, 1)","(0, 0)","(0, 0)"
64,8.5,45_top_r,True,3.622464166721329,,,,False,False,True,,,,left,down,"(0, 0)","(1, 0)","(0, 1)","(0, 0)","(0, 0)","(0, 0)","(1, 1)","(0, 0)"
65,7.5,45_top_u,False,,,3.723513250006363,faster,True,True,False,up,True,1.1018036666791886,down,up,"(1, 1)","(0, 0)","(0, 0)","(0, 0)","(0, 1)","(0, 0)","(0, 0)","(1, 0)"
66,7.5,135_bottom_d,False,,,,,False,True,False,,,,up,down,"(0, 0)","(0, 0)","(1, 1)","(0, 0)","(0, 0)","(0, 0)","(0, 1)","(1, 0)"
67,8.5,135_top_u,True,3.610889249946922,,,,False,False,True,,,,down,right,"(1, 0)","(0, 1)","(0, 0)","(0, 0)","(0, 0)","(1, 1)","(0, 0)","(0, 0)"
68,8.5,45_top_u,False,,,,,False,True,False,,,,down,up,"(1, 1)","(0, 0)","(0, 0)","(0, 0)","(0, 1)","(0, 0)","(0, 0)","(1, 0)"
69,8.5,45_top_u,True,3.6147922499803826,,,,False,False,True,,,,down,left,"(1, 0)","(0, 0)","(0, 0)","(0, 1)","(0, 0)","(0, 0)","(0, 0)","(1, 1)"
70,8.0,45_top_r,False,,,3.731965000042692,faster,True,True,False,right,True,0.9716448333347216,left,right,"(0, 0)","(1, 1)","(0, 0)","(0, 0)","(0, 0)","(0, 1)","(1, 0)","(0, 0)"
71,8.5,none_d,False,,,,,False,True,True,,,,up,down,"(0, 0)","(0, 0)","(1, 1)","(0, 0)","(0, 0)","(0, 0)","(1, 1)","(0, 0)"
72,7.5,none_d,False,,,,,False,True,True,,,,up,down,"(0, 0)","(0, 0)","(1, 1)","(0, 0)","(0, 0)","(0, 0)","(1, 1)","(0, 0)"
73,8.5,135_bottom_r,True,3.616160291712731,,3.7211719166953117,faster,True,False,True,up,True,0.7618026667041704,left,up,"(0, 1)","(1, 0)","(0, 0)","(0, 0)","(1, 1)","(0, 0)","(0, 0)","(0, 0)"
74,7.5,45_bottom_l,False,,,,,False,True,False,,,,right,left,"(0, 0)","(0, 0)","(0, 0)","(1, 1)","(1, 0)","(0, 0)","(0, 0)","(0, 1)"
75,8.5,none_u,True,,left,3.7216326250927523,slower,True,False,False,,False,,down,left,"(1, 0)","(0, 0)","(0, 0)","(0, 1)","(1, 0)","(0, 0)","(0, 0)","(0, 1)"
76,8.5,45_top_u,False,,,,,False,True,False,,,,down,up,"(1, 1)","(0, 0)","(0, 0)","(0, 0)","(0, 1)","(0, 0)","(0, 0)","(1, 0)"
77,7.5,none_r,True,,left,,,False,False,False,,,,left,up,"(0, 1)","(1, 0)","(0, 0)","(0, 0)","(0, 1)","(1, 0)","(0, 0)","(0, 0)"
78,7.5,none_l,False,,,3.724007583456114,faster,True,True,True,left,True,1.0422883331775665,right,left,"(0, 0)","(0, 0)","(0, 0)","(1, 1)","(0, 0)","(0, 0)","(0, 0)","(1, 1)"
79,8.0,135_top_u,True,3.625944250030443,,3.7314931249711663,faster,True,False,True,right,True,0.8291818749858066,down,right,"(1, 0)","(0, 1)","(0, 0)","(0, 0)","(0, 0)","(1, 1)","(0, 0)","(0, 0)"
80,8.5,135_top_u,False,,,,,False,True,False,,,,down,up,"(1, 1)","(0, 0)","(0, 0)","(0, 0)","(0, 1)","(1, 0)","(0, 0)","(0, 0)"
81,7.5,45_bottom_l,True,3.6190724167972803,,,,False,False,True,,,,right,up,"(0, 1)","(0, 0)","(0, 0)","(1, 0)","(1, 1)","(0, 0)","(0, 0)","(0, 0)"
82,8.5,45_top_u,True,3.616779000032693,,3.724979583406821,faster,True,False,True,left,True,0.8679572083055973,down,left,"(1, 0)","(0, 0)","(0, 0)","(0, 1)","(0, 0)","(0, 0)","(0, 0)","(1, 1)"
83,7.5,135_top_u,False,,,3.7290125833824277,faster,True,True,False,up,True,0.9017534166341648,down,up,"(1, 1)","(0, 0)","(0, 0)","(0, 0)","(0, 1)","(1, 0)","(0, 0)","(0, 0)"
84,8.0,45_bottom_l,False,,,,,False,True,False,,,,right,left,"(0, 0)","(0, 0)","(0, 0)","(1, 1)","(1, 0)","(0, 0)","(0, 0)","(0, 1)"
85,8.0,none_r,True,,left,,,False,False,False,,,,left,up,"(0, 1)","(1, 0)","(0, 0)","(0, 0)","(0, 1)","(1, 0)","(0, 0)","(0, 0)"
86,7.5,none_l,True,,left,3.722173999994993,slower,True,False,False,,False,,right,down,"(0, 0)","(0, 0)","(0, 1)","(1, 0)","(0, 0)","(0, 0)","(0, 1)","(1, 0)"
87,7.5,135_bottom_r,False,,,,,False,True,False,,,,left,right,"(0, 0)","(1, 1)","(0, 0)","(0, 0)","(1, 0)","(0, 1)","(0, 0)","(0, 0)"
88,8.0,135_top_u,True,3.614820541581139,,3.7203288332093507,slower,True,False,True,right,True,0.7626744167646393,down,right,"(1, 0)","(0, 1)","(0, 0)","(0, 0)","(0, 0)","(1, 1)","(0, 0)","(0, 0)"
89,8.5,45_bottom_d,False,,,3.726032250095159,slower,True,True,False,down,True,1.1620822915574536,up,down,"(0, 0)","(0, 0)","(1, 1)","(0, 0)","(0, 0)","(1, 0)","(0, 1)","(0, 0)"
90,8.5,135_top_l,False,,,,,False,True,False,,,,right,left,"(0, 0)","(0, 0)","(0, 0)","(1, 1)","(0, 0)","(0, 0)","(1, 0)","(0, 1)"
91,7.5,45_bottom_d,False,,,3.7244122916599736,faster,True,True,False,down,True,0.7616489583160728,up,down,"(0, 0)","(0, 0)","(1, 1)","(0, 0)","(0, 0)","(1, 0)","(0, 1)","(0, 0)"
92,8.5,45_top_r,False,,,3.728326000040397,slower,True,True,False,right,True,0.7813988749403507,left,right,"(0, 0)","(1, 1)","(0, 0)","(0, 0)","(0, 0)","(0, 1)","(1, 0)","(0, 0)"
93,8.0,none_d,False,,,3.718605999951251,faster,True,True,True,down,True,0.80496362503618,up,down,"(0, 0)","(0, 0)","(1, 1)","(0, 0)","(0, 0)","(0, 0)","(1, 1)","(0, 0)"
94,8.5,45_top_u,False,,,,,False,True,False,,,,down,up,"(1, 1)","(0, 0)","(0, 0)","(0, 0)","(0, 1)","(0, 0)","(0, 0)","(1, 0)"
95,8.5,135_bottom_r,True,3.6155697084032,,,,False,False,True,,,,left,up,"(0, 1)","(1, 0)","(0, 0)","(0, 0)","(1, 1)","(0, 0)","(0, 0)","(0, 0)"
96,8.0,none_u,False,,,3.72220583318267,faster,True,True,True,up,True,0.7474667084170505,down,up,"(1, 1)","(0, 0)","(0, 0)","(0, 0)","(1, 1)","(0, 0)","(0, 0)","(0, 0)"
97,7.5,135_top_l,False,,,3.72161870833952,slower,True,True,False,left,True,0.7624347499804571,right,left,"(0, 0)","(0, 0)","(0, 0)","(1, 1)","(0, 0)","(0, 0)","(1, 0)","(0, 1)"
98,7.5,135_bottom_r,True,3.6298149165231735,,3.7347934583667666,slower,True,False,True,up,True,0.7419840832008049,left,up,"(0, 1)","(1, 0)","(0, 0)","(0, 0)","(1, 1)","(0, 0)","(0, 0)","(0, 0)"
99,7.5,135_bottom_d,False,,,3.719653250067495,slower,True,True,False,down,True,0.8038609999930486,up,down,"(0, 0)","(0, 0)","(1, 1)","(0, 0)","(0, 0)","(0, 0)","(0, 1)","(1, 0)"
100,8.5,none_l,False,,,,,False,True,True,,,,right,left,"(0, 0)","(0, 0)","(0, 0)","(1, 1)","(0, 0)","(0, 0)","(0, 0)","(1, 1)"
101,7.5,135_bottom_d,True,3.6228633749997243,,3.7273382500279695,faster,True,False,True,left,True,0.6568310415605083,up,left,"(0, 0)","(0, 0)","(1, 0)","(0, 1)","(0, 0)","(0, 0)","(0, 0)","(1, 1)"
102,8.5,none_l,True,,right,,,False,False,False,,,,right,up,"(0, 1)","(0, 0)","(0, 0)","(1, 0)","(0, 1)","(0, 0)","(0, 0)","(1, 0)"
103,7.5,45_bottom_d,False,,,3.7210765833733603,slower,True,True,False,down,True,0.9528307083528489,up,down,"(0, 0)","(0, 0)","(1, 1)","(0, 0)","(0, 0)","(1, 0)","(0, 1)","(0, 0)"
104,8.0,45_top_u,True,3.6148805416887626,,,,False,False,True,,,,down,left,"(1, 0)","(0, 0)","(0, 0)","(0, 1)","(0, 0)","(0, 0)","(0, 0)","(1, 1)"
105,7.5,none_d,False,,,3.7103425833629444,faster,True,True,True,down,True,0.9520917916670442,up,down,"(0, 0)","(0, 0)","(1, 1)","(0, 0)","(0, 0)","(0, 0)","(1, 1)","(0, 0)"
106,8.5,none_u,False,,,3.7209169999696314,faster,True,True,True,up,True,0.7612965416628867,down,up,"(1, 1)","(0, 0)","(0, 0)","(0, 0)","(1, 1)","(0, 0)","(0, 0)","(0, 0)"
107,7.5,none_d,False,,,3.7282650418346748,slower,True,True,True,down,True,0.8298160831909627,up,down,"(0, 0)","(0, 0)","(1, 1)","(0, 0)","(0, 0)","(0, 0)","(1, 1)","(0, 0)"
108,7.5,135_top_l,False,,,3.7351562082767487,faster,True,True,False,left,True,0.7502362083178014,right,left,"(0, 0)","(0, 0)","(0, 0)","(1, 1)","(0, 0)","(0, 0)","(1, 0)","(0, 1)"
109,8.0,45_top_u,True,3.6236469582654536,,3.7298359165433794,slower,True,False,True,left,True,0.74596625007689,down,left,"(1, 0)","(0, 0)","(0, 0)","(0, 1)","(0, 0)","(0, 0)","(0, 0)","(1, 1)"
110,8.0,none_r,True,,left,,,False,False,False,,,,left,up,"(0, 1)","(1, 0)","(0, 0)","(0, 0)","(0, 1)","(1, 0)","(0, 0)","(0, 0)"
111,8.0,45_bottom_d,False,,,3.7423283751122653,slower,True,True,False,down,True,0.9604792917380109,up,down,"(0, 0)","(0, 0)","(1, 1)","(0, 0)","(0, 0)","(1, 0)","(0, 1)","(0, 0)"
112,8.0,45_top_r,True,3.6291462499648333,,,,False,False,True,,,,left,down,"(0, 0)","(1, 0)","(0, 1)","(0, 0)","(0, 0)","(0, 0)","(1, 1)","(0, 0)"
113,7.5,45_bottom_l,True,3.639819791656919,,,,False,False,True,,,,right,up,"(0, 1)","(0, 0)","(0, 0)","(1, 0)","(1, 1)","(0, 0)","(0, 0)","(0, 0)"
114,8.0,45_bottom_d,True,3.624665333307348,,,,False,False,True,,,,up,right,"(0, 0)","(0, 1)","(1, 0)","(0, 0)","(0, 0)","(1, 1)","(0, 0)","(0, 0)"
115,7.5,none_d,True,,right,,,False,False,False,,,,up,left,"(0, 0)","(0, 0)","(1, 0)","(0, 1)","(0, 0)","(0, 0)","(1, 0)","(0, 1)"
116,8.5,135_bottom_d,True,3.6244798749685287,,,,False,False,True,,,,up,left,"(0, 0)","(0, 0)","(1, 0)","(0, 1)","(0, 0)","(0, 0)","(0, 0)","(1, 1)"
117,8.0,45_top_u,False,,,3.735155791626312,slower,True,True,False,up,True,0.899371208390221,down,up,"(1, 1)","(0, 0)","(0, 0)","(0, 0)","(0, 1)","(0, 0)","(0, 0)","(1, 0)"
118,8.5,135_bottom_d,False,,,3.7368635416496545,faster,True,True,False,down,True,0.8970106667838991,up,down,"(0, 0)","(0, 0)","(1, 1)","(0, 0)","(0, 0)","(0, 0)","(0, 1)","(1, 0)"
119,7.5,none_d,True,,left,,,False,False,False,right,False,1.1198702916735783,up,right,"(0, 0)","(0, 1)","(1, 0)","(0, 0)","(0, 0)","(0, 1)","(1, 0)","(0, 0)"
120,8.5,none_l,False,,,3.7233556249411777,faster,True,True,True,left,True,0.7611396249849349,right,left,"(0, 0)","(0, 0)","(0, 0)","(1, 1)","(0, 0)","(0, 0)","(0, 0)","(1, 1)"
121,8.0,45_bottom_l,True,3.63108524994459,,,,False,False,True,,,,right,up,"(0, 1)","(0, 0)","(0, 0)","(1, 0)","(1, 1)","(0, 0)","(0, 0)","(0, 0)"
122,7.5,none_d,False,,,,,False,True,True,,,,up,down,"(0, 0)","(0, 0)","(1, 1)","(0, 0)","(0, 0)","(0, 0)","(1, 1)","(0, 0)"
123,8.0,none_u,True,,left,3.7391528332373127,slower,True,False,False,,False,,down,left,"(1, 0)","(0, 0)","(0, 0)","(0, 1)","(1, 0)","(0, 0)","(0, 0)","(0, 1)"
124,8.5,none_l,True,,left,3.7238117083907127,slower,True,False,False,,False,,right,down,"(0, 0)","(0, 0)","(0, 1)","(1, 0)","(0, 0)","(0, 0)","(0, 1)","(1, 0)"
125,8.0,135_bottom_d,False,,,3.7178518750006333,slower,True,True,False,down,True,0.8912703749956563,up,down,"(0, 0)","(0, 0)","(1, 1)","(0, 0)","(0, 0)","(0, 0)","(0, 1)","(1, 0)"
126,8.0,135_top_l,False,,,3.7384260416729376,faster,True,True,False,left,True,0.7709455415606499,right,left,"(0, 0)","(0, 0)","(0, 0)","(1, 1)","(0, 0)","(0, 0)","(1, 0)","(0, 1)"
127,8.5,135_bottom_r,True,3.6159027916146442,,3.720521666575223,faster,True,False,True,up,True,0.6615126666147262,left,up,"(0, 1)","(1, 0)","(0, 0)","(0, 0)","(1, 1)","(0, 0)","(0, 0)","(0, 0)"
128,8.5,none_l,True,,left,3.7252175000030547,faster,True,False,False,,False,,right,down,"(0, 0)","(0, 0)","(0, 1)","(1, 0)","(0, 0)","(0, 0)","(0, 1)","(1, 0)"
129,7.5,135_top_l,True,3.616229833336547,,,,False,False,True,,,,right,down,"(0, 0)","(0, 0)","(0, 1)","(1, 0)","(0, 0)","(0, 0)","(1, 1)","(0, 0)"
130,7.5,135_top_l,True,3.617542374995537,,3.722991833346896,faster,True,False,True,down,True,0.8481772083323449,right,down,"(0, 0)","(0, 0)","(0, 1)","(1, 0)","(0, 0)","(0, 0)","(1, 1)","(0, 0)"
131,7.5,45_bottom_l,True,3.6193902499508113,,,,False,False,True,,,,right,up,"(0, 1)","(0, 0)","(0, 0)","(1, 0)","(1, 1)","(0, 0)","(0, 0)","(0, 0)"
132,8.5,135_top_l,False,,,,,False,True,False,,,,right,left,"(0, 0)","(0, 0)","(0, 0)","(1, 1)","(0, 0)","(0, 0)","(1, 0)","(0, 1)"
133,7.5,45_top_r,True,3.6143074582796544,,,,False,False,True,,,,left,down,"(0, 0)","(1, 0)","(0, 1)","(0, 0)","(0, 0)","(0, 0)","(1, 1)","(0, 0)"
134,8.0,none_u,True,,right,,,False,False,False,,,,down,right,"(1, 0)","(0, 1)","(0, 0)","(0, 0)","(1, 0)","(0, 1)","(0, 0)","(0, 0)"
135,7.5,45_top_r,True,3.62541025003884,,,,False,False,True,,,,left,down,"(0, 0)","(1, 0)","(0, 1)","(0, 0)","(0, 0)","(0, 0)","(1, 1)","(0, 0)"
136,8.5,135_bottom_r,True,3.6196780832251534,,,,False,False,True,,,,left,up,"(0, 1)","(1, 0)","(0, 0)","(0, 0)","(1, 1)","(0, 0)","(0, 0)","(0, 0)"
137,8.0,135_bottom_r,True,3.622427041642368,,,,False,False,True,,,,left,up,"(0, 1)","(1, 0)","(0, 0)","(0, 0)","(1, 1)","(0, 0)","(0, 0)","(0, 0)"
138,7.5,45_bottom_d,False,,,,,False,True,False,,,,up,down,"(0, 0)","(0, 0)","(1, 1)","(0, 0)","(0, 0)","(1, 0)","(0, 1)","(0, 0)"
139,7.5,45_bottom_l,False,,,,,False,True,False,,,,right,left,"(0, 0)","(0, 0)","(0, 0)","(1, 1)","(1, 0)","(0, 0)","(0, 0)","(0, 1)"
140,7.5,135_bottom_d,True,3.6275849582161754,,,,False,False,True,,,,up,left,"(0, 0)","(0, 0)","(1, 0)","(0, 1)","(0, 0)","(0, 0)","(0, 0)","(1, 1)"
141,7.5,none_l,True,,right,,,False,False,False,,,,right,up,"(0, 1)","(0, 0)","(0, 0)","(1, 0)","(0, 1)","(0, 0)","(0, 0)","(1, 0)"
142,8.5,45_bottom_l,False,,,3.732038833433762,slower,True,True,False,left,True,1.0182843749644235,right,left,"(0, 0)","(0, 0)","(0, 0)","(1, 1)","(1, 0)","(0, 0)","(0, 0)","(0, 1)"
143,7.5,135_top_l,True,3.613706291653216,,3.7186679166043177,slower,True,False,True,down,True,0.9742387083824724,right,down,"(0, 0)","(0, 0)","(0, 1)","(1, 0)","(0, 0)","(0, 0)","(1, 1)","(0, 0)"
144,8.0,135_top_u,True,3.6209547084290534,,,,False,False,True,,,,down,right,"(1, 0)","(0, 1)","(0, 0)","(0, 0)","(0, 0)","(1, 1)","(0, 0)","(0, 0)"
145,8.5,none_r,True,,right,,,False,False,False,,,,left,down,"(0, 0)","(1, 0)","(0, 1)","(0, 0)","(0, 0)","(1, 0)","(0, 1)","(0, 0)"
146,7.5,none_r,True,,right,3.725941041833721,faster,True,False,False,,False,,left,down,"(0, 0)","(1, 0)","(0, 1)","(0, 0)","(0, 0)","(1, 0)","(0, 1)","(0, 0)"
147,7.5,none_u,False,,,3.7446492499439046,faster,True,True,True,up,True,0.8347044168040156,down,up,"(1, 1)","(0, 0)","(0, 0)","(0, 0)","(1, 1)","(0, 0)","(0, 0)","(0, 0)"
148,7.5,45_bottom_d,True,3.6186707500601187,,,,False,False,True,,,,up,right,"(0, 0)","(0, 1)","(1, 0)","(0, 0)","(0, 0)","(1, 1)","(0, 0)","(0, 0)"
149,8.0,none_d,False,,,,,False,True,True,,,,up,down,"(0, 0)","(0, 0)","(1, 1)","(0, 0)","(0, 0)","(0, 0)","(1, 1)","(0, 0)"
150,7.5,135_bottom_r,True,3.620115374913439,,3.7251747915288433,slower,True,False,True,up,True,0.7428177084075287,left,up,"(0, 1)","(1, 0)","(0, 0)","(0, 0)","(1, 1)","(0, 0)","(0, 0)","(0, 0)"
