,trial_type,trial,ball_speed,ball_start_color,ball_color_change,interactor,bounce,bounce_moment,random_bounce_direction,target_onset,ball_change,target_color,abs_congruent,sim_congruent,response,accuracy,rt,start_pos,end_pos,abs_rfup,abs_rfright,abs_rfdown,abs_rfleft,sim_rfup,sim_rfright,sim_rfdown,sim_rfleft
0,empty,1,9.435597266251252,0.1825646827007934,-0.335,none_u,True,3.6569781999569386,right,3.923742300015874,True,"[-0.15243531729920662, -0.15243531729920662, -0.15243531729920662]",False,False,,False,,down,right,"(1, 0)","(0, 1)","(0, 0)","(0, 0)","(1, 0)","(0, 1)","(0, 0)","(0, 0)"
1,empty,2,8.909766656634881,0.43457262741571256,0.335,none_u,True,3.5832235999405384,right,3.849454400013201,True,"[0.7695726274157126, 0.7695726274157126, 0.7695726274157126]",False,False,m,,,down,right,"(1, 0)","(0, 1)","(0, 0)","(0, 0)","(1, 0)","(0, 1)","(0, 0)","(0, 0)"
2,empty,3,9.218153825229667,0.16632507778668099,0.168,none_d,False,,,3.86606639996171,True,"[0.33432507778668097, 0.33432507778668097, 0.33432507778668097]",True,True,x,,,up,down,"(0, 0)","(0, 0)","(1, 1)","(0, 0)","(0, 0)","(0, 0)","(1, 1)","(0, 0)"
3,empty,4,9.514981223146927,0.7223003143672058,0.335,none_l,True,3.58189599995967,right,3.8479622999439016,True,"[1.0573003143672057, 1.0573003143672057, 1.0573003143672057]",False,False,lighter,True,1.3352484999923036,right,up,"(0, 1)","(0, 0)","(0, 0)","(1, 0)","(0, 1)","(0, 0)","(0, 0)","(1, 0)"
4,interactor,5,9.426649718930518,0.05811836178549644,-0.168,135_top_u,True,3.5820516999810934,,3.8493060999317095,True,"[-0.10988163821450357, -0.10988163821450357, -0.10988163821450357]",False,True,lighter,False,1.5674835999961942,down,right,"(1, 0)","(0, 1)","(0, 0)","(0, 0)","(0, 0)","(1, 1)","(0, 0)","(0, 0)"
5,interactor,6,9.430448016073417,0.08831109742087066,0.0,45_bottom_d,False,,,3.867183299968019,True,"[0.08831109742087066, 0.08831109742087066, 0.08831109742087066]",True,False,lighter,,0.7338109000120312,up,down,"(0, 0)","(0, 0)","(1, 1)","(0, 0)","(0, 0)","(1, 0)","(0, 1)","(0, 0)"
6,empty,7,9.626741469392773,0.21696705328355717,-0.335,none_r,False,,,3.8660349000710994,True,"[-0.11803294671644285, -0.11803294671644285, -0.11803294671644285]",True,True,darker,True,0.8840559999225661,left,right,"(0, 0)","(1, 1)","(0, 0)","(0, 0)","(0, 0)","(1, 1)","(0, 0)","(0, 0)"
7,empty,8,9.803238116110938,0.20021443443475762,0.0,none_u,False,,,3.8665145999984816,True,"[0.20021443443475762, 0.20021443443475762, 0.20021443443475762]",True,True,lighter,,1.3495574000990018,down,up,"(1, 1)","(0, 0)","(0, 0)","(0, 0)","(1, 1)","(0, 0)","(0, 0)","(0, 0)"
8,empty,9,9.364138948238345,0.12532662622179513,-0.168,none_u,True,3.5829948999453336,right,3.849107899935916,True,"[-0.042673373778204876, -0.042673373778204876, -0.042673373778204876]",False,False,lighter,False,1.499855300062336,down,right,"(1, 0)","(0, 1)","(0, 0)","(0, 0)","(1, 0)","(0, 1)","(0, 0)","(0, 0)"
9,empty,10,9.535830640542807,0.02448787214948292,0.335,none_u,False,,,3.865541800041683,True,"[0.35948787214948297, 0.35948787214948297, 0.35948787214948297]",True,True,lighter,True,0.933577699935995,down,up,"(1, 1)","(0, 0)","(0, 0)","(0, 0)","(1, 1)","(0, 0)","(0, 0)","(0, 0)"
10,interactor,11,9.775014923627229,0.2707433208347,0.168,135_bottom_r,False,,,3.8669897998915985,True,"[0.4387433208347, 0.4387433208347, 0.4387433208347]",True,False,lighter,True,0.6838201000355184,left,right,"(0, 0)","(1, 1)","(0, 0)","(0, 0)","(1, 0)","(0, 1)","(0, 0)","(0, 0)"
11,empty,12,9.781826410665532,0.21875248536451614,-0.168,none_l,False,,,3.8667692000744864,True,"[0.050752485364516126, 0.050752485364516126, 0.050752485364516126]",True,True,lighter,False,0.7320332999806851,right,left,"(0, 0)","(0, 0)","(0, 0)","(1, 1)","(0, 0)","(0, 0)","(0, 0)","(1, 1)"
12,empty,13,9.602412727085701,0.4444846701674713,0.335,none_r,False,,,3.8660739000188187,True,"[0.7794846701674714, 0.7794846701674714, 0.7794846701674714]",True,True,lighter,True,0.5503582999808714,left,right,"(0, 0)","(1, 1)","(0, 0)","(0, 0)","(0, 0)","(1, 1)","(0, 0)","(0, 0)"
13,empty,14,8.811666218611952,-0.100080593849763,-0.168,none_d,True,3.5849258999805897,right,3.8503702000016347,True,"[-0.268080593849763, -0.268080593849763, -0.268080593849763]",False,False,lighter,False,0.5344809000380337,up,left,"(0, 0)","(0, 0)","(1, 0)","(0, 1)","(0, 0)","(0, 0)","(1, 0)","(0, 1)"
14,interactor,15,9.548560093724916,0.2334775760254702,0.0,135_top_l,True,3.5824732000473887,,3.8499193000607193,True,"[0.2334775760254702, 0.2334775760254702, 0.2334775760254702]",False,True,lighter,,0.5348911000182852,right,down,"(0, 0)","(0, 0)","(0, 1)","(1, 0)","(0, 0)","(0, 0)","(1, 1)","(0, 0)"
15,interactor,16,9.834887817268962,0.3121459857158227,0.335,135_bottom_d,False,,,3.8661398999392986,True,"[0.6471459857158227, 0.6471459857158227, 0.6471459857158227]",True,False,lighter,True,0.5349270000588149,up,down,"(0, 0)","(0, 0)","(1, 1)","(0, 0)","(0, 0)","(0, 0)","(0, 1)","(1, 0)"
16,empty,17,9.383213063421561,-0.16208108794302387,0.0,none_d,True,3.583613900002092,right,3.8498632999835536,True,"[-0.16208108794302387, -0.16208108794302387, -0.16208108794302387]",False,False,darker,,0.5829879000084475,up,left,"(0, 0)","(0, 0)","(1, 0)","(0, 1)","(0, 0)","(0, 0)","(1, 0)","(0, 1)"
17,empty,18,9.537456991513437,0.29430419835454524,0.0,none_r,True,3.582765999948606,right,3.8476482999976724,True,"[0.29430419835454524, 0.29430419835454524, 0.29430419835454524]",False,False,lighter,,0.5354298999300227,left,down,"(0, 0)","(1, 0)","(0, 1)","(0, 0)","(0, 0)","(1, 0)","(0, 1)","(0, 0)"
18,empty,19,9.650604937076801,0.14435584847726152,0.168,none_l,False,,,3.865556300035678,True,"[0.3123558484772615, 0.3123558484772615, 0.3123558484772615]",True,True,lighter,True,0.6515009999275208,right,left,"(0, 0)","(0, 0)","(0, 0)","(1, 1)","(0, 0)","(0, 0)","(0, 0)","(1, 1)"
19,interactor,20,9.420537118014714,0.2592091148628881,-0.335,135_top_l,False,,,3.8668319999706,True,"[-0.07579088513711191, -0.07579088513711191, -0.07579088513711191]",True,False,lighter,False,0.5671303999843076,right,left,"(0, 0)","(0, 0)","(0, 0)","(1, 1)","(0, 0)","(0, 0)","(1, 0)","(0, 1)"
20,empty,21,9.796838015189035,0.17812733681567133,0.335,none_d,False,,,3.867318999953568,True,"[0.5131273368156714, 0.5131273368156714, 0.5131273368156714]",True,True,lighter,True,0.533525500097312,up,down,"(0, 0)","(0, 0)","(1, 1)","(0, 0)","(0, 0)","(0, 0)","(1, 1)","(0, 0)"
21,interactor,22,9.064424629729677,0.01992189737834718,-0.335,45_bottom_d,False,,,3.866453199996613,True,"[-0.3150781026216528, -0.3150781026216528, -0.3150781026216528]",True,False,darker,True,0.46792760002426803,up,down,"(0, 0)","(0, 0)","(1, 1)","(0, 0)","(0, 0)","(1, 0)","(0, 1)","(0, 0)"
22,empty,23,9.47621311442163,0.12489402697856873,0.168,none_r,False,,,3.8656152000185102,True,"[0.29289402697856876, 0.29289402697856876, 0.29289402697856876]",True,True,lighter,True,0.5168396999360994,left,right,"(0, 0)","(1, 1)","(0, 0)","(0, 0)","(0, 0)","(1, 1)","(0, 0)","(0, 0)"
23,empty,24,9.821702128231182,0.36983704068251877,0.335,none_d,False,,,3.866279099951498,True,"[0.7048370406825188, 0.7048370406825188, 0.7048370406825188]",True,True,lighter,True,0.5832495000213385,up,down,"(0, 0)","(0, 0)","(1, 1)","(0, 0)","(0, 0)","(0, 0)","(1, 1)","(0, 0)"
24,interactor,25,9.431292125650407,0.04858947671800759,0.335,135_top_l,False,,,3.8655861999141052,True,"[0.3835894767180076, 0.3835894767180076, 0.3835894767180076]",True,False,lighter,True,0.6164732000324875,right,left,"(0, 0)","(0, 0)","(0, 0)","(1, 1)","(0, 0)","(0, 0)","(1, 0)","(0, 1)"
25,empty,26,9.594395351099346,0.08887452002642446,0.0,none_r,False,,,3.8675136000383645,True,"[0.08887452002642446, 0.08887452002642446, 0.08887452002642446]",True,True,darker,,0.7661708999658003,left,right,"(0, 0)","(1, 1)","(0, 0)","(0, 0)","(0, 0)","(1, 1)","(0, 0)","(0, 0)"
26,interactor,27,9.135358093230714,0.1991615677783325,-0.168,135_top_l,False,,,3.866585800074972,True,"[0.031161567778332483, 0.031161567778332483, 0.031161567778332483]",True,False,darker,True,0.6842052999418229,right,left,"(0, 0)","(0, 0)","(0, 0)","(1, 1)","(0, 0)","(0, 0)","(1, 0)","(0, 1)"
27,empty,28,9.316113575778845,0.07023944962539719,0.0,none_l,True,3.5824275000486523,right,3.8492450000485405,True,"[0.07023944962539719, 0.07023944962539719, 0.07023944962539719]",False,False,lighter,,0.617650100030005,right,up,"(0, 1)","(0, 0)","(0, 0)","(1, 0)","(0, 1)","(0, 0)","(0, 0)","(1, 0)"
28,interactor,29,9.64521775304054,0.4221002177187023,-0.168,45_top_u,True,3.5829364000819623,,3.8492662000935525,True,"[0.2541002177187023, 0.2541002177187023, 0.2541002177187023]",False,True,lighter,False,0.6673157999757677,down,left,"(1, 0)","(0, 0)","(0, 0)","(0, 1)","(0, 0)","(0, 0)","(0, 0)","(1, 1)"
29,interactor,30,9.34703101790403,0.05180752765801737,0.0,45_bottom_d,False,,,3.8664638000773266,True,"[0.05180752765801737, 0.05180752765801737, 0.05180752765801737]",True,False,lighter,,0.5996703999117017,up,down,"(0, 0)","(0, 0)","(1, 1)","(0, 0)","(0, 0)","(1, 0)","(0, 1)","(0, 0)"
30,empty,31,9.949822716118547,0.28182736664830216,0.0,none_d,True,3.5838351000566036,right,3.86693010001909,True,"[0.28182736664830216, 0.28182736664830216, 0.28182736664830216]",False,False,lighter,,0.8510972999501973,up,left,"(0, 0)","(0, 0)","(1, 0)","(0, 1)","(0, 0)","(0, 0)","(1, 0)","(0, 1)"
31,interactor,32,9.112504233236885,0.2553875916594262,0.0,135_top_l,True,3.581497000064701,,3.848861900041811,True,"[0.2553875916594262, 0.2553875916594262, 0.2553875916594262]",False,True,lighter,,0.6329310999717563,right,down,"(0, 0)","(0, 0)","(0, 1)","(1, 0)","(0, 0)","(0, 0)","(1, 1)","(0, 0)"
32,interactor,33,9.292741396119052,0.39230345894820196,-0.335,45_bottom_d,True,3.5831191999604926,,3.849270800012164,True,"[0.057303458948201935, 0.057303458948201935, 0.057303458948201935]",False,True,darker,True,0.8670253999298438,up,right,"(0, 0)","(0, 1)","(1, 0)","(0, 0)","(0, 0)","(1, 1)","(0, 0)","(0, 0)"
33,interactor,34,9.230069840860853,0.0644882844774718,-0.335,45_top_r,False,,,3.8663435999769717,True,"[-0.27051171552252823, -0.27051171552252823, -0.27051171552252823]",True,False,darker,True,0.6831198999425396,left,right,"(0, 0)","(1, 1)","(0, 0)","(0, 0)","(0, 0)","(0, 1)","(1, 0)","(0, 0)"
34,interactor,35,9.436165787784349,0.12838308848777824,0.0,135_top_l,True,3.5810321000171825,,3.8493255000794306,True,"[0.12838308848777824, 0.12838308848777824, 0.12838308848777824]",False,True,lighter,,0.5503822999307886,right,down,"(0, 0)","(0, 0)","(0, 1)","(1, 0)","(0, 0)","(0, 0)","(1, 1)","(0, 0)"
35,interactor,36,9.222566501146083,0.5903647211015765,0.335,135_bottom_r,True,3.582863899995573,,3.849163999897428,True,"[0.9253647211015765, 0.9253647211015765, 0.9253647211015765]",False,True,lighter,True,0.649671700084582,left,up,"(0, 1)","(1, 0)","(0, 0)","(0, 0)","(1, 1)","(0, 0)","(0, 0)","(0, 0)"
36,interactor,37,9.889373676451608,0.01981010695034416,0.168,45_bottom_d,True,3.583172900020145,,3.8675275000277907,True,"[0.18781010695034417, 0.18781010695034417, 0.18781010695034417]",False,True,lighter,True,0.5163552999729291,up,right,"(0, 0)","(0, 1)","(1, 0)","(0, 0)","(0, 0)","(1, 1)","(0, 0)","(0, 0)"
37,empty,38,9.354969017167287,0.3322415957880023,-0.168,none_r,False,,,3.8651336999610066,True,"[0.16424159578800226, 0.16424159578800226, 0.16424159578800226]",True,True,darker,True,1.2677164000924677,left,right,"(0, 0)","(1, 1)","(0, 0)","(0, 0)","(0, 0)","(1, 1)","(0, 0)","(0, 0)"
38,interactor,39,9.564437606672124,0.08547358754591118,0.168,135_bottom_d,True,3.5819217999232933,,3.8493510999251157,True,"[0.2534735875459112, 0.2534735875459112, 0.2534735875459112]",False,True,darker,False,0.6165562000824139,up,left,"(0, 0)","(0, 0)","(1, 0)","(0, 1)","(0, 0)","(0, 0)","(0, 0)","(1, 1)"
39,empty,40,9.462807432270283,0.04103108118672737,-0.335,none_r,False,,,3.8677569000283256,True,"[-0.29396891881327264, -0.29396891881327264, -0.29396891881327264]",True,True,darker,True,0.6159254999365658,left,right,"(0, 0)","(1, 1)","(0, 0)","(0, 0)","(0, 0)","(1, 1)","(0, 0)","(0, 0)"
40,interactor,41,9.521605049933234,0.2960899684029614,-0.335,135_bottom_r,True,3.5817902999697253,,3.8489858000539243,True,"[-0.0389100315970386, -0.0389100315970386, -0.0389100315970386]",False,True,darker,True,0.7837853999808431,left,up,"(0, 1)","(1, 0)","(0, 0)","(0, 0)","(1, 1)","(0, 0)","(0, 0)","(0, 0)"
41,empty,42,9.279517060491735,0.18979774659205145,0.0,none_l,False,,,3.86656250001397,True,"[0.18979774659205145, 0.18979774659205145, 0.18979774659205145]",True,True,darker,,0.7504315000260249,right,left,"(0, 0)","(0, 0)","(0, 0)","(1, 1)","(0, 0)","(0, 0)","(0, 0)","(1, 1)"
42,empty,43,9.204538097817384,0.36805372674691744,0.335,none_d,True,3.5826871000463143,left,3.8495907000033185,True,"[0.7030537267469175, 0.7030537267469175, 0.7030537267469175]",False,False,lighter,True,0.48339920002035797,up,right,"(0, 0)","(0, 1)","(1, 0)","(0, 0)","(0, 0)","(0, 1)","(1, 0)","(0, 0)"
43,interactor,44,9.467968424290445,0.0947301238365996,0.0,45_bottom_l,True,3.583706700010225,,3.850022899918258,True,"[0.0947301238365996, 0.0947301238365996, 0.0947301238365996]",False,True,darker,,0.6008082000771537,right,up,"(0, 1)","(0, 0)","(0, 0)","(1, 0)","(1, 1)","(0, 0)","(0, 0)","(0, 0)"
44,empty,45,9.596681965260474,-0.09699728391132015,-0.335,none_u,True,3.5825514999451116,right,3.8497311000246555,True,"[-0.4319972839113202, -0.4319972839113202, -0.4319972839113202]",False,False,darker,True,1.082084699999541,down,right,"(1, 0)","(0, 1)","(0, 0)","(0, 0)","(1, 0)","(0, 1)","(0, 0)","(0, 0)"
45,empty,46,9.628219800651033,0.18184874050321959,0.335,none_d,True,3.5817063000286,left,3.847786400001496,True,"[0.5168487405032196, 0.5168487405032196, 0.5168487405032196]",False,False,lighter,True,0.8674433999694884,up,right,"(0, 0)","(0, 1)","(1, 0)","(0, 0)","(0, 0)","(0, 1)","(1, 0)","(0, 0)"
46,interactor,47,9.400635759160535,0.15081857009287308,-0.168,45_bottom_d,True,3.582861499977298,,3.8501986999763176,True,"[-0.017181429907126927, -0.017181429907126927, -0.017181429907126927]",False,True,darker,True,0.7341508000390604,up,right,"(0, 0)","(0, 1)","(1, 0)","(0, 0)","(0, 0)","(1, 1)","(0, 0)","(0, 0)"
47,empty,48,9.473840553749433,0.28873385220923276,-0.168,none_d,False,,,3.866056099999696,True,"[0.12073385220923274, 0.12073385220923274, 0.12073385220923274]",True,True,lighter,False,0.4339185000862926,up,down,"(0, 0)","(0, 0)","(1, 1)","(0, 0)","(0, 0)","(0, 0)","(1, 1)","(0, 0)"
48,empty,49,9.07929411360998,0.14337135322880398,0.168,none_l,True,3.582446400076151,right,3.8484964000526816,True,"[0.311371353228804, 0.311371353228804, 0.311371353228804]",False,False,darker,False,0.9175543000455946,right,up,"(0, 1)","(0, 0)","(0, 0)","(1, 0)","(0, 1)","(0, 0)","(0, 0)","(1, 0)"
49,empty,50,9.568327192379604,0.17669491951123834,-0.335,none_d,False,,,3.866621099994518,True,"[-0.15830508048876168, -0.15830508048876168, -0.15830508048876168]",True,True,lighter,False,0.46741339995060116,up,down,"(0, 0)","(0, 0)","(1, 1)","(0, 0)","(0, 0)","(0, 0)","(1, 1)","(0, 0)"
50,interactor,51,9.67295794269994,0.2633506605499531,0.335,45_bottom_l,True,3.5830129999667406,,3.8511629999848083,True,"[0.5983506605499531, 0.5983506605499531, 0.5983506605499531]",False,True,lighter,True,0.5007490999996662,right,up,"(0, 1)","(0, 0)","(0, 0)","(1, 0)","(1, 1)","(0, 0)","(0, 0)","(0, 0)"
51,empty,52,9.564798489334049,0.3356573413635454,0.168,none_d,False,,,3.866428400040604,True,"[0.5036573413635455, 0.5036573413635455, 0.5036573413635455]",True,True,lighter,True,0.4827084999997169,up,down,"(0, 0)","(0, 0)","(1, 1)","(0, 0)","(0, 0)","(0, 0)","(1, 1)","(0, 0)"
52,empty,53,9.758973029602966,0.018012638984487628,0.168,none_r,True,3.5822532000020146,left,3.8501811999594793,True,"[0.18601263898448764, 0.18601263898448764, 0.18601263898448764]",False,False,lighter,True,0.8169221000280231,left,up,"(0, 1)","(1, 0)","(0, 0)","(0, 0)","(0, 1)","(1, 0)","(0, 0)","(0, 0)"
53,empty,54,9.144775134437047,0.24559617816448998,0.0,none_l,False,,,3.866455700015649,True,"[0.24559617816448998, 0.24559617816448998, 0.24559617816448998]",True,True,lighter,,0.6507465000031516,right,left,"(0, 0)","(0, 0)","(0, 0)","(1, 1)","(0, 0)","(0, 0)","(0, 0)","(1, 1)"
54,empty,55,9.382461161740629,0.09292257408963746,0.168,none_d,True,3.5838141000131145,left,3.850597800104879,True,"[0.2609225740896375, 0.2609225740896375, 0.2609225740896375]",False,False,lighter,True,0.5668392999796197,up,right,"(0, 0)","(0, 1)","(1, 0)","(0, 0)","(0, 0)","(0, 1)","(1, 0)","(0, 0)"
55,interactor,56,9.393602217174658,-0.032716386424837846,0.335,45_top_r,True,3.5824205999961123,,3.849580700043589,True,"[0.3022836135751622, 0.3022836135751622, 0.3022836135751622]",False,True,lighter,True,0.6166742999339476,left,down,"(0, 0)","(1, 0)","(0, 1)","(0, 0)","(0, 0)","(0, 0)","(1, 1)","(0, 0)"
56,interactor,57,9.271514680405325,0.12114555391955564,0.168,45_top_u,True,3.5824284999398515,,3.8486224999651313,True,"[0.28914555391955565, 0.28914555391955565, 0.28914555391955565]",False,True,lighter,True,0.616325999959372,down,left,"(1, 0)","(0, 0)","(0, 0)","(0, 1)","(0, 0)","(0, 0)","(0, 0)","(1, 1)"
57,empty,58,9.576723112696857,0.2031939529098948,0.335,none_l,False,,,3.866902199923061,True,"[0.5381939529098948, 0.5381939529098948, 0.5381939529098948]",True,True,lighter,True,0.4836085999850184,right,left,"(0, 0)","(0, 0)","(0, 0)","(1, 1)","(0, 0)","(0, 0)","(0, 0)","(1, 1)"
58,empty,59,9.573849783761988,0.30763326092835697,-0.168,none_l,False,,,3.8662334999535233,True,"[0.13963326092835696, 0.13963326092835696, 0.13963326092835696]",True,True,darker,True,0.7328498000279069,right,left,"(0, 0)","(0, 0)","(0, 0)","(1, 1)","(0, 0)","(0, 0)","(0, 0)","(1, 1)"
59,interactor,60,9.341678952617176,0.05475810534531021,-0.168,45_bottom_d,True,3.584267699974589,,3.8504390999441966,True,"[-0.1132418946546898, -0.1132418946546898, -0.1132418946546898]",False,True,darker,True,0.7178589999675751,up,right,"(0, 0)","(0, 1)","(1, 0)","(0, 0)","(0, 0)","(1, 1)","(0, 0)","(0, 0)"
60,empty,61,9.189510563930956,-0.014724456853130258,0.0,none_r,True,3.584489200031385,left,3.8517216000473127,True,"[-0.014724456853130258, -0.014724456853130258, -0.014724456853130258]",False,False,darker,,0.6841899999417365,left,up,"(0, 1)","(1, 0)","(0, 0)","(0, 0)","(0, 1)","(1, 0)","(0, 0)","(0, 0)"
61,empty,62,9.41148551321242,0.39216367517792283,0.335,none_r,True,3.5842637999448925,left,3.8502800000132993,True,"[0.7271636751779229, 0.7271636751779229, 0.7271636751779229]",False,False,lighter,True,0.45051019999664277,left,up,"(0, 1)","(1, 0)","(0, 0)","(0, 0)","(0, 1)","(1, 0)","(0, 0)","(0, 0)"
62,empty,63,9.739826312096046,0.2473774609628585,-0.168,none_u,True,3.58155500004068,left,3.849466099985875,True,"[0.0793774609628585, 0.0793774609628585, 0.0793774609628585]",False,False,darker,True,0.9654999000485986,down,left,"(1, 0)","(0, 0)","(0, 0)","(0, 1)","(1, 0)","(0, 0)","(0, 0)","(0, 1)"
63,interactor,64,9.353458835547158,0.46202846441735235,-0.168,135_top_l,True,3.5836121999891475,,3.8509518000064418,True,"[0.2940284644173523, 0.2940284644173523, 0.2940284644173523]",False,True,lighter,False,0.6171392999822274,right,down,"(0, 0)","(0, 0)","(0, 1)","(1, 0)","(0, 0)","(0, 0)","(1, 1)","(0, 0)"
64,empty,65,9.471152119491135,0.1589403149284425,-0.335,none_l,False,,,3.865344899939373,True,"[-0.17605968507155753, -0.17605968507155753, -0.17605968507155753]",True,True,darker,True,0.7008837000466883,right,left,"(0, 0)","(0, 0)","(0, 0)","(1, 1)","(0, 0)","(0, 0)","(0, 0)","(1, 1)"
65,empty,66,9.753994849985393,0.23575409138053693,-0.335,none_l,True,3.5838201000588015,right,3.8494572000345215,True,"[-0.09924590861946309, -0.09924590861946309, -0.09924590861946309]",False,False,darker,True,0.7843123999191448,right,up,"(0, 1)","(0, 0)","(0, 0)","(1, 0)","(0, 1)","(0, 0)","(0, 0)","(1, 0)"
66,empty,67,9.583189420202558,-0.11861909322014627,0.168,none_l,True,3.581960799987428,right,3.8490578000200912,True,"[0.04938090677985374, 0.04938090677985374, 0.04938090677985374]",False,False,darker,False,0.9512406999710947,right,up,"(0, 1)","(0, 0)","(0, 0)","(1, 0)","(0, 1)","(0, 0)","(0, 0)","(1, 0)"
67,empty,68,9.423820501973907,0.20403433370177732,0.335,none_u,True,3.5844737000297755,left,3.8496844000183046,True,"[0.5390343337017773, 0.5390343337017773, 0.5390343337017773]",False,False,lighter,True,0.5503019999014214,down,left,"(1, 0)","(0, 0)","(0, 0)","(0, 1)","(1, 0)","(0, 0)","(0, 0)","(0, 1)"
68,interactor,69,9.675940127726207,0.14969981298037016,0.168,135_bottom_r,False,,,3.8666614000685513,True,"[0.3176998129803702, 0.3176998129803702, 0.3176998129803702]",True,False,darker,False,0.8507339999778196,left,right,"(0, 0)","(1, 1)","(0, 0)","(0, 0)","(1, 0)","(0, 1)","(0, 0)","(0, 0)"
69,interactor,70,8.89337054881118,0.025340836204046507,-0.335,45_top_r,False,,,3.866705699940212,True,"[-0.3096591637959535, -0.3096591637959535, -0.3096591637959535]",True,False,darker,True,0.6340256000403315,left,right,"(0, 0)","(1, 1)","(0, 0)","(0, 0)","(0, 0)","(0, 1)","(1, 0)","(0, 0)"
70,empty,71,10.092439940612579,-0.08724297715993554,0.0,none_r,True,3.583967400016263,left,3.8661281999666244,True,"[-0.08724297715993554, -0.08724297715993554, -0.08724297715993554]",False,False,lighter,,0.7013114000437781,left,up,"(0, 1)","(1, 0)","(0, 0)","(0, 0)","(0, 1)","(1, 0)","(0, 0)","(0, 0)"
71,empty,72,9.496953074879215,0.10371744024353607,0.168,none_d,False,,,3.866065499954857,True,"[0.27171744024353606, 0.27171744024353606, 0.27171744024353606]",True,True,lighter,True,0.3837207000469789,up,down,"(0, 0)","(0, 0)","(1, 1)","(0, 0)","(0, 0)","(0, 0)","(1, 1)","(0, 0)"
72,empty,73,9.439039093310063,0.054862097265024876,-0.168,none_u,True,3.5837897000601515,right,3.848830600036308,True,"[-0.11313790273497513, -0.11313790273497513, -0.11313790273497513]",False,False,darker,True,0.667600000044331,down,right,"(1, 0)","(0, 1)","(0, 0)","(0, 0)","(1, 0)","(0, 1)","(0, 0)","(0, 0)"
73,empty,74,9.40558283772881,0.2056442143944178,0.0,none_d,True,3.582678100094199,left,3.8505609000567347,True,"[0.2056442143944178, 0.2056442143944178, 0.2056442143944178]",False,False,lighter,,0.600103999953717,up,right,"(0, 0)","(0, 1)","(1, 0)","(0, 0)","(0, 0)","(0, 1)","(1, 0)","(0, 0)"
74,empty,75,9.597597259951863,0.3425699457018967,-0.168,none_l,False,,,3.8655005000764504,True,"[0.17456994570189668, 0.17456994570189668, 0.17456994570189668]",True,True,lighter,False,0.45056589995510876,right,left,"(0, 0)","(0, 0)","(0, 0)","(1, 1)","(0, 0)","(0, 0)","(0, 0)","(1, 1)"
75,empty,76,9.708258301649328,0.2919438577643287,-0.335,none_d,True,3.582893899991177,left,3.8491678000427783,True,"[-0.043056142235671335, -0.043056142235671335, -0.043056142235671335]",False,False,lighter,False,0.5170743999769911,up,right,"(0, 0)","(0, 1)","(1, 0)","(0, 0)","(0, 0)","(0, 1)","(1, 0)","(0, 0)"
76,interactor,77,9.67411563331097,0.22118990483282558,0.168,45_bottom_d,False,,,3.8669611000223085,True,"[0.38918990483282556, 0.38918990483282556, 0.38918990483282556]",True,False,lighter,True,0.49938230006955564,up,down,"(0, 0)","(0, 0)","(1, 1)","(0, 0)","(0, 0)","(1, 0)","(0, 1)","(0, 0)"
77,interactor,78,9.400747135535095,0.37345777648447204,-0.335,45_bottom_d,False,,,3.8651873000198975,True,"[0.03845777648447202, 0.03845777648447202, 0.03845777648447202]",True,False,lighter,False,0.4837736999616027,up,down,"(0, 0)","(0, 0)","(1, 1)","(0, 0)","(0, 0)","(1, 0)","(0, 1)","(0, 0)"
78,empty,79,9.376168354239717,0.36246325787470957,-0.335,none_u,False,,,3.865990500082262,True,"[0.027463257874709546, 0.027463257874709546, 0.027463257874709546]",True,True,darker,True,0.8165172999724746,down,up,"(1, 1)","(0, 0)","(0, 0)","(0, 0)","(1, 1)","(0, 0)","(0, 0)","(0, 0)"
79,interactor,80,9.388011201918948,0.11843775185407723,0.335,45_top_r,False,,,3.8666467999573797,True,"[0.45343775185407725, 0.45343775185407725, 0.45343775185407725]",True,False,lighter,True,0.4341699000215158,left,right,"(0, 0)","(1, 1)","(0, 0)","(0, 0)","(0, 0)","(0, 1)","(1, 0)","(0, 0)"
80,interactor,81,9.673724199469952,0.06410702951461326,-0.168,45_top_r,False,,,3.86769399989862,True,"[-0.10389297048538675, -0.10389297048538675, -0.10389297048538675]",True,False,space,,,left,right,"(0, 0)","(1, 1)","(0, 0)","(0, 0)","(0, 0)","(0, 1)","(1, 0)","(0, 0)"
81,empty,82,9.689643968871925,0.04013347060658162,-0.335,none_d,False,,,3.8664152999408543,True,"[-0.2948665293934184, -0.2948665293934184, -0.2948665293934184]",True,True,lighter,False,1.0346839000703767,up,down,"(0, 0)","(0, 0)","(1, 1)","(0, 0)","(0, 0)","(0, 0)","(1, 1)","(0, 0)"
82,interactor,83,9.149089687568766,-0.018660668546514242,0.0,135_bottom_d,True,3.582640300039202,,3.8491126000881195,True,"[-0.018660668546514242, -0.018660668546514242, -0.018660668546514242]",False,True,darker,,0.7508047999581322,up,left,"(0, 0)","(0, 0)","(1, 0)","(0, 1)","(0, 0)","(0, 0)","(0, 0)","(1, 1)"
83,interactor,84,9.493368453287797,0.17324429331421115,0.0,45_bottom_l,True,3.582061400054954,,3.8503196999663487,True,"[0.17324429331421115, 0.17324429331421115, 0.17324429331421115]",False,True,lighter,,0.6661086999811232,right,up,"(0, 1)","(0, 0)","(0, 0)","(1, 0)","(1, 1)","(0, 0)","(0, 0)","(0, 0)"
84,interactor,85,9.64763450229551,0.23950338192737708,-0.335,45_top_r,True,3.581917999894358,,3.850263000000268,True,"[-0.09549661807262294, -0.09549661807262294, -0.09549661807262294]",False,True,lighter,False,0.9164354999084026,left,down,"(0, 0)","(1, 0)","(0, 1)","(0, 0)","(0, 0)","(0, 0)","(1, 1)","(0, 0)"
85,empty,86,9.75133749206295,0.3872798936991153,0.168,none_u,False,,,3.8664827999891713,True,"[0.5552798936991153, 0.5552798936991153, 0.5552798936991153]",True,True,lighter,True,0.6332369999727234,down,up,"(1, 1)","(0, 0)","(0, 0)","(0, 0)","(1, 1)","(0, 0)","(0, 0)","(0, 0)"
86,empty,87,9.598010343146374,0.3101372349136503,-0.168,none_r,True,3.581873899907805,left,3.8487211999017745,True,"[0.1421372349136503, 0.1421372349136503, 0.1421372349136503]",False,False,lighter,False,0.6001147000351921,left,up,"(0, 1)","(1, 0)","(0, 0)","(0, 0)","(0, 1)","(1, 0)","(0, 0)","(0, 0)"
87,interactor,88,9.664286175747392,0.08861872878471728,-0.335,45_top_u,True,3.582232900080271,,3.850708600017242,True,"[-0.24638127121528275, -0.24638127121528275, -0.24638127121528275]",False,True,darker,True,0.6003773000556976,down,left,"(1, 0)","(0, 0)","(0, 0)","(0, 1)","(0, 0)","(0, 0)","(0, 0)","(1, 1)"
88,empty,89,9.367403668672846,0.2633402449788374,0.335,none_u,True,3.5829785000532866,right,3.8477898000273854,True,"[0.5983402449788374, 0.5983402449788374, 0.5983402449788374]",False,False,lighter,True,0.6015925999963656,down,right,"(1, 0)","(0, 1)","(0, 0)","(0, 0)","(1, 0)","(0, 1)","(0, 0)","(0, 0)"
89,interactor,90,9.774657472056349,0.21688745989335972,0.0,45_top_r,True,3.5818735000211746,,3.850487699965015,True,"[0.21688745989335972, 0.21688745989335972, 0.21688745989335972]",False,True,lighter,,0.44932710006833076,left,down,"(0, 0)","(1, 0)","(0, 1)","(0, 0)","(0, 0)","(0, 0)","(1, 1)","(0, 0)"
90,empty,91,9.457597534289022,0.36855050284950946,0.168,none_l,False,,,3.865756999934092,True,"[0.5365505028495094, 0.5365505028495094, 0.5365505028495094]",True,True,lighter,True,0.5501381000503898,right,left,"(0, 0)","(0, 0)","(0, 0)","(1, 1)","(0, 0)","(0, 0)","(0, 0)","(1, 1)"
91,empty,92,9.910147795079313,0.08337056955584365,0.168,none_u,True,3.5829078000970185,right,3.8660495000658557,True,"[0.2513705695558437, 0.2513705695558437, 0.2513705695558437]",False,False,lighter,True,0.50079600000754,down,right,"(1, 0)","(0, 1)","(0, 0)","(0, 0)","(1, 0)","(0, 1)","(0, 0)","(0, 0)"
92,empty,93,9.265593618826399,0.20776004014755803,0.335,none_d,False,,,3.865657399990596,True,"[0.5427600401475581, 0.5427600401475581, 0.5427600401475581]",True,True,lighter,True,0.4844956999877468,up,down,"(0, 0)","(0, 0)","(1, 1)","(0, 0)","(0, 0)","(0, 0)","(1, 1)","(0, 0)"
93,interactor,94,9.192233468612098,0.09897606687244435,-0.335,135_top_u,False,,,3.8660519999684766,True,"[-0.23602393312755565, -0.23602393312755565, -0.23602393312755565]",True,False,darker,True,0.8659848000388592,down,up,"(1, 1)","(0, 0)","(0, 0)","(0, 0)","(0, 1)","(1, 0)","(0, 0)","(0, 0)"
94,interactor,95,9.507140373628726,0.1777749694482683,-0.168,45_top_u,False,,,3.864724099985324,True,"[0.009774969448268278, 0.009774969448268278, 0.009774969448268278]",True,False,darker,True,0.6840103999711573,down,up,"(1, 1)","(0, 0)","(0, 0)","(0, 0)","(0, 1)","(0, 0)","(0, 0)","(1, 0)"
95,empty,96,9.501605660615159,0.34019210437715064,0.335,none_u,False,,,3.8667916000122204,True,"[0.6751921043771507, 0.6751921043771507, 0.6751921043771507]",True,True,lighter,True,0.7486472999444231,down,up,"(1, 1)","(0, 0)","(0, 0)","(0, 0)","(1, 1)","(0, 0)","(0, 0)","(0, 0)"
96,interactor,97,9.422560552218982,0.30531190765456956,-0.335,135_top_u,False,,,3.8651490000775084,True,"[-0.02968809234543046, -0.02968809234543046, -0.02968809234543046]",True,False,darker,True,0.6837299999315292,down,up,"(1, 1)","(0, 0)","(0, 0)","(0, 0)","(0, 1)","(1, 0)","(0, 0)","(0, 0)"
97,empty,98,9.194972898194434,0.4024889466847935,0.0,none_u,True,3.5828253999352455,right,3.8499931999249384,True,"[0.4024889466847935, 0.4024889466847935, 0.4024889466847935]",False,False,lighter,,0.6169039000524208,down,right,"(1, 0)","(0, 1)","(0, 0)","(0, 0)","(1, 0)","(0, 1)","(0, 0)","(0, 0)"
98,empty,99,9.609093136830895,0.5027534359105282,-0.335,none_r,True,3.5818318999372423,right,3.8496778999688104,True,"[0.16775343591052821, 0.16775343591052821, 0.16775343591052821]",False,False,lighter,False,0.5325259999372065,left,down,"(0, 0)","(1, 0)","(0, 1)","(0, 0)","(0, 0)","(1, 0)","(0, 1)","(0, 0)"
99,interactor,100,9.245923334473478,0.0965268027266597,-0.168,45_top_r,False,,,3.867425699951127,True,"[-0.07147319727334031, -0.07147319727334031, -0.07147319727334031]",True,False,darker,True,1.1666728999698535,left,right,"(0, 0)","(1, 1)","(0, 0)","(0, 0)","(0, 0)","(0, 1)","(1, 0)","(0, 0)"
100,empty,101,9.41333572184311,0.34561898092223187,0.335,none_l,True,3.5845041000284255,right,3.849723399966024,True,"[0.6806189809222318, 0.6806189809222318, 0.6806189809222318]",False,False,lighter,True,0.6007856000214815,right,up,"(0, 1)","(0, 0)","(0, 0)","(1, 0)","(0, 1)","(0, 0)","(0, 0)","(1, 0)"
101,interactor,102,8.963765251954502,-0.17087803314132297,-0.168,135_bottom_d,False,,,3.8664508999790996,True,"[-0.338878033141323, -0.338878033141323, -0.338878033141323]",True,False,darker,True,0.8828726999927312,up,down,"(0, 0)","(0, 0)","(1, 1)","(0, 0)","(0, 0)","(0, 0)","(0, 1)","(1, 0)"
102,interactor,103,9.582402873945808,0.35843796305941633,0.168,45_top_u,False,,,3.864906799979508,True,"[0.5264379630594164, 0.5264379630594164, 0.5264379630594164]",True,False,lighter,True,1.0011744999792427,down,up,"(1, 1)","(0, 0)","(0, 0)","(0, 0)","(0, 1)","(0, 0)","(0, 0)","(1, 0)"
103,interactor,104,9.978812245117249,-0.15289577401946977,-0.335,45_bottom_l,False,,,3.865944999968633,True,"[-0.4878957740194698, -0.4878957740194698, -0.4878957740194698]",True,False,darker,True,0.534814800019376,right,left,"(0, 0)","(0, 0)","(0, 0)","(1, 1)","(1, 0)","(0, 0)","(0, 0)","(0, 1)"
104,empty,105,9.522629693680903,0.028476011086953745,0.335,none_r,False,,,3.8657004000851884,True,"[0.36347601108695377, 0.36347601108695377, 0.36347601108695377]",True,True,lighter,True,0.5173350999830291,left,right,"(0, 0)","(1, 1)","(0, 0)","(0, 0)","(0, 0)","(1, 1)","(0, 0)","(0, 0)"
105,empty,106,9.770864616919368,0.2058341488678402,0.0,none_u,True,3.584147599991411,right,3.8502303999848664,True,"[0.2058341488678402, 0.2058341488678402, 0.2058341488678402]",False,False,lighter,,0.5499976000282913,down,right,"(1, 0)","(0, 1)","(0, 0)","(0, 0)","(1, 0)","(0, 1)","(0, 0)","(0, 0)"
106,interactor,107,9.590345312189354,0.24284894036410645,-0.335,135_bottom_r,False,,,3.8671860999893397,True,"[-0.09215105963589357, -0.09215105963589357, -0.09215105963589357]",True,False,lighter,False,0.5490455999970436,left,right,"(0, 0)","(1, 1)","(0, 0)","(0, 0)","(1, 0)","(0, 1)","(0, 0)","(0, 0)"
107,interactor,108,9.335678963867208,0.1825299372219834,0.0,45_top_r,False,,,3.8667681999504566,True,"[0.1825299372219834, 0.1825299372219834, 0.1825299372219834]",True,False,lighter,,0.7668440999696031,left,right,"(0, 0)","(1, 1)","(0, 0)","(0, 0)","(0, 0)","(0, 1)","(1, 0)","(0, 0)"
108,empty,109,9.742820444918141,0.11319129825368585,-0.168,none_d,True,3.583617299911566,left,3.8504421999678016,True,"[-0.054808701746314165, -0.054808701746314165, -0.054808701746314165]",False,False,lighter,False,0.8833836000412703,up,right,"(0, 0)","(0, 1)","(1, 0)","(0, 0)","(0, 0)","(0, 1)","(1, 0)","(0, 0)"
109,empty,110,9.54337994486455,0.1281676008432066,0.0,none_u,False,,,3.8660810999572277,True,"[0.1281676008432066, 0.1281676008432066, 0.1281676008432066]",True,True,lighter,,0.6836659000255167,down,up,"(1, 1)","(0, 0)","(0, 0)","(0, 0)","(1, 1)","(0, 0)","(0, 0)","(0, 0)"
110,empty,111,8.915279996743195,0.4084009446159721,-0.168,none_l,True,3.5845758999930695,right,3.8500535000348464,True,"[0.24040094461597208, 0.24040094461597208, 0.24040094461597208]",False,False,darker,True,0.5006561999907717,right,up,"(0, 1)","(0, 0)","(0, 0)","(1, 0)","(0, 1)","(0, 0)","(0, 0)","(1, 0)"
111,empty,112,9.958010300053024,0.3618519555055867,-0.335,none_u,False,,,3.8672864999389276,True,"[0.026851955505586667, 0.026851955505586667, 0.026851955505586667]",True,True,darker,True,0.6328650000505149,down,up,"(1, 1)","(0, 0)","(0, 0)","(0, 0)","(1, 1)","(0, 0)","(0, 0)","(0, 0)"
112,empty,113,9.909031465570331,0.13934073629114554,-0.168,none_r,False,,,3.8663112999638543,True,"[-0.028659263708854466, -0.028659263708854466, -0.028659263708854466]",True,True,lighter,False,0.516675699967891,left,right,"(0, 0)","(1, 1)","(0, 0)","(0, 0)","(0, 0)","(1, 1)","(0, 0)","(0, 0)"
113,empty,114,9.179526334443107,0.33235603429592653,-0.335,none_u,True,3.582661399967037,left,3.8486681999638677,True,"[-0.002643965704073492, -0.002643965704073492, -0.002643965704073492]",False,False,lighter,False,0.6846010000444949,down,left,"(1, 0)","(0, 0)","(0, 0)","(0, 1)","(1, 0)","(0, 0)","(0, 0)","(0, 1)"
114,empty,115,9.276851885557681,0.22830006430373387,0.168,none_r,False,,,3.8655835000099614,True,"[0.3963000643037339, 0.3963000643037339, 0.3963000643037339]",True,True,lighter,True,0.5837103000376374,left,right,"(0, 0)","(1, 1)","(0, 0)","(0, 0)","(0, 0)","(1, 1)","(0, 0)","(0, 0)"
115,interactor,116,9.601392713996775,0.01954605091966427,0.168,135_bottom_d,False,,,3.867578199948184,True,"[0.18754605091966428, 0.18754605091966428, 0.18754605091966428]",True,False,lighter,True,0.5491681999992579,up,down,"(0, 0)","(0, 0)","(1, 1)","(0, 0)","(0, 0)","(0, 0)","(0, 1)","(1, 0)"
116,interactor,117,9.489171026105463,0.17761129206609066,-0.335,45_bottom_l,True,3.581862899940461,,3.8500161999836564,True,"[-0.15738870793390936, -0.15738870793390936, -0.15738870793390936]",False,True,darker,True,0.5493315999628976,right,up,"(0, 1)","(0, 0)","(0, 0)","(1, 0)","(1, 1)","(0, 0)","(0, 0)","(0, 0)"
117,empty,118,9.41109751203345,0.11189006793607909,0.335,none_r,False,,,3.8667453000089154,True,"[0.4468900679360791, 0.4468900679360791, 0.4468900679360791]",True,True,lighter,True,0.5013191000325605,left,right,"(0, 0)","(1, 1)","(0, 0)","(0, 0)","(0, 0)","(1, 1)","(0, 0)","(0, 0)"
118,interactor,119,9.684261687798811,0.2687584208816285,-0.168,135_top_u,False,,,3.866024399991147,True,"[0.10075842088162848, 0.10075842088162848, 0.10075842088162848]",True,False,darker,True,0.48393300001043826,down,up,"(1, 1)","(0, 0)","(0, 0)","(0, 0)","(0, 1)","(1, 0)","(0, 0)","(0, 0)"
119,interactor,120,9.725162077554831,0.09219893370977303,0.168,135_top_l,False,,,3.8650122999679297,True,"[0.26019893370977304, 0.26019893370977304, 0.26019893370977304]",True,False,lighter,True,0.6835837999824435,right,left,"(0, 0)","(0, 0)","(0, 0)","(1, 1)","(0, 0)","(0, 0)","(1, 0)","(0, 1)"
120,interactor,121,9.809235904445348,0.33824690286881587,0.168,135_bottom_r,True,3.5829942000564188,,3.8673787000589073,True,"[0.5062469028688159, 0.5062469028688159, 0.5062469028688159]",False,True,lighter,True,0.7002361000049859,left,up,"(0, 1)","(1, 0)","(0, 0)","(0, 0)","(1, 1)","(0, 0)","(0, 0)","(0, 0)"
121,interactor,122,9.353363882547335,0.308747809585343,0.168,45_top_u,False,,,3.8654999000718817,True,"[0.476747809585343, 0.476747809585343, 0.476747809585343]",True,False,lighter,True,0.4849885000148788,down,up,"(1, 1)","(0, 0)","(0, 0)","(0, 0)","(0, 1)","(0, 0)","(0, 0)","(1, 0)"
122,interactor,123,9.846547797331908,0.13983680711017069,0.0,135_top_u,True,3.5820731999119744,,3.8667013999074697,True,"[0.13983680711017069, 0.13983680711017069, 0.13983680711017069]",False,True,darker,,0.7502897001104429,down,right,"(1, 0)","(0, 1)","(0, 0)","(0, 0)","(0, 0)","(1, 1)","(0, 0)","(0, 0)"
123,interactor,124,9.241807843248495,0.32593337387788174,0.168,45_top_r,True,3.5811501001007855,,3.849368500057608,True,"[0.4939333738778817, 0.4939333738778817, 0.4939333738778817]",False,True,lighter,True,0.5655218999600038,left,down,"(0, 0)","(1, 0)","(0, 1)","(0, 0)","(0, 0)","(0, 0)","(1, 1)","(0, 0)"
124,interactor,125,9.780587464140256,0.3829287529862174,0.168,45_bottom_l,False,,,3.867877500015311,True,"[0.5509287529862175, 0.5509287529862175, 0.5509287529862175]",True,False,lighter,True,0.5999336000531912,right,left,"(0, 0)","(0, 0)","(0, 0)","(1, 1)","(1, 0)","(0, 0)","(0, 0)","(0, 1)"
125,empty,126,9.711191071924027,0.16023070338151643,0.168,none_r,False,,,3.8665567999705672,True,"[0.32823070338151644, 0.32823070338151644, 0.32823070338151644]",True,True,lighter,True,0.4830746999941766,left,right,"(0, 0)","(1, 1)","(0, 0)","(0, 0)","(0, 0)","(1, 1)","(0, 0)","(0, 0)"
126,empty,127,9.68772975508218,0.19929664625647753,0.0,none_r,True,3.582454500021413,right,3.850304299965501,True,"[0.19929664625647753, 0.19929664625647753, 0.19929664625647753]",False,False,lighter,,0.49985740007832646,left,down,"(0, 0)","(1, 0)","(0, 1)","(0, 0)","(0, 0)","(1, 0)","(0, 1)","(0, 0)"
127,interactor,128,9.564677160374902,0.09044141201762153,0.335,135_top_l,True,3.582828300073743,,3.8500992000335827,True,"[0.42544141201762153, 0.42544141201762153, 0.42544141201762153]",False,True,lighter,True,0.4670380000025034,right,down,"(0, 0)","(0, 0)","(0, 1)","(1, 0)","(0, 0)","(0, 0)","(1, 1)","(0, 0)"
128,empty,129,9.620497418568013,0.38349704418265324,-0.335,none_r,True,3.5841432000743225,left,3.851072399993427,True,"[0.048497044182653215, 0.048497044182653215, 0.048497044182653215]",False,False,darker,True,0.6996169000631198,left,up,"(0, 1)","(1, 0)","(0, 0)","(0, 0)","(0, 1)","(1, 0)","(0, 0)","(0, 0)"
129,empty,130,9.536518186482358,0.13316413975542873,0.335,none_r,True,3.583930699969642,left,3.850091499974951,True,"[0.46816413975542875, 0.46816413975542875, 0.46816413975542875]",False,False,lighter,True,0.81774240010418,left,up,"(0, 1)","(1, 0)","(0, 0)","(0, 0)","(0, 1)","(1, 0)","(0, 0)","(0, 0)"
130,empty,131,9.508789775482057,0.07714512241996592,-0.168,none_u,True,3.584872300038114,right,3.850752600003034,True,"[-0.09085487758003409, -0.09085487758003409, -0.09085487758003409]",False,False,space,,,down,right,"(1, 0)","(0, 1)","(0, 0)","(0, 0)","(1, 0)","(0, 1)","(0, 0)","(0, 0)"
131,interactor,132,9.601950279720253,-0.07377798573916797,-0.168,135_bottom_r,True,3.5824932999676093,,3.849839400034398,True,"[-0.24177798573916798, -0.24177798573916798, -0.24177798573916798]",False,True,darker,True,1.0001236000098288,left,up,"(0, 1)","(1, 0)","(0, 0)","(0, 0)","(1, 1)","(0, 0)","(0, 0)","(0, 0)"
132,interactor,133,9.60744318241225,0.3594768559454445,0.0,135_top_u,False,,,3.864833500003442,True,"[0.3594768559454445, 0.3594768559454445, 0.3594768559454445]",True,False,lighter,,1.4841725999722257,down,up,"(1, 1)","(0, 0)","(0, 0)","(0, 0)","(0, 1)","(1, 0)","(0, 0)","(0, 0)"
133,empty,134,9.02752394470818,0.4049867257518657,-0.168,none_u,True,3.5828519000206143,left,3.8487930999835953,True,"[0.23698672575186566, 0.23698672575186566, 0.23698672575186566]",False,False,lighter,False,0.6848980999784544,down,left,"(1, 0)","(0, 0)","(0, 0)","(0, 1)","(1, 0)","(0, 0)","(0, 0)","(0, 1)"
134,interactor,135,9.88201236901252,-0.12158635195812775,0.168,135_top_l,False,,,3.866358899977058,True,"[0.04641364804187226, 0.04641364804187226, 0.04641364804187226]",True,False,lighter,True,1.2843701000092551,right,left,"(0, 0)","(0, 0)","(0, 0)","(1, 1)","(0, 0)","(0, 0)","(1, 0)","(0, 1)"
135,interactor,136,9.328987702274345,0.04688332203807084,0.0,45_bottom_d,True,3.5827006000326946,,3.8499453000258654,True,"[0.04688332203807084, 0.04688332203807084, 0.04688332203807084]",False,True,lighter,,0.900878700078465,up,right,"(0, 0)","(0, 1)","(1, 0)","(0, 0)","(0, 0)","(1, 1)","(0, 0)","(0, 0)"
136,interactor,137,9.615178701172649,0.211322820640178,-0.168,135_top_u,True,3.5828908999683335,,3.84902800002601,True,"[0.04332282064017798, 0.04332282064017798, 0.04332282064017798]",False,True,lighter,False,0.6166180999716744,down,right,"(1, 0)","(0, 1)","(0, 0)","(0, 0)","(0, 0)","(1, 1)","(0, 0)","(0, 0)"
137,interactor,138,9.420065671990777,0.24182417101841802,0.0,45_bottom_d,True,3.5822784999618307,,3.8485746999504045,True,"[0.24182417101841802, 0.24182417101841802, 0.24182417101841802]",False,True,lighter,,0.550546900019981,up,right,"(0, 0)","(0, 1)","(1, 0)","(0, 0)","(0, 0)","(1, 1)","(0, 0)","(0, 0)"
138,empty,139,9.417107172820874,0.22957542679108345,0.168,none_r,False,,,3.8663463999982923,True,"[0.3975754267910835, 0.3975754267910835, 0.3975754267910835]",True,True,lighter,True,0.7506950999377295,left,right,"(0, 0)","(1, 1)","(0, 0)","(0, 0)","(0, 0)","(1, 1)","(0, 0)","(0, 0)"
139,interactor,140,9.080994106067658,-0.028811845630271865,-0.335,45_top_u,True,3.5824922000756487,,3.8498418000526726,True,"[-0.3638118456302719, -0.3638118456302719, -0.3638118456302719]",False,True,darker,True,0.5659737000241876,down,left,"(1, 0)","(0, 0)","(0, 0)","(0, 1)","(0, 0)","(0, 0)","(0, 0)","(1, 1)"
140,empty,141,10.131052909297093,-0.134108204265215,0.0,none_d,False,,,3.866956799989566,True,"[-0.134108204265215, -0.134108204265215, -0.134108204265215]",True,True,space,,,up,down,"(0, 0)","(0, 0)","(1, 1)","(0, 0)","(0, 0)","(0, 0)","(1, 1)","(0, 0)"
141,interactor,142,9.942884570678354,0.2119122188418095,0.0,135_top_l,False,,,3.8652199000352994,True,"[0.2119122188418095, 0.2119122188418095, 0.2119122188418095]",True,False,lighter,,0.43389089999254793,right,left,"(0, 0)","(0, 0)","(0, 0)","(1, 1)","(0, 0)","(0, 0)","(1, 0)","(0, 1)"
142,empty,143,9.444250361210099,-0.14875983969851644,0.335,none_d,True,3.583309300011024,right,3.8492930999491364,True,"[0.18624016030148358, 0.18624016030148358, 0.18624016030148358]",False,False,lighter,True,0.43448980001267046,up,left,"(0, 0)","(0, 0)","(1, 0)","(0, 1)","(0, 0)","(0, 0)","(1, 0)","(0, 1)"
143,empty,144,9.338761611993146,0.018951800507573086,-0.335,none_d,False,,,3.865248900023289,True,"[-0.3160481994924269, -0.3160481994924269, -0.3160481994924269]",True,True,darker,True,0.5839895000681281,up,down,"(0, 0)","(0, 0)","(1, 1)","(0, 0)","(0, 0)","(0, 0)","(1, 1)","(0, 0)"
144,empty,145,9.21476280482043,0.02613489690159715,0.335,none_d,True,3.582928300020285,left,3.8496356999967247,True,"[0.36113489690159717, 0.36113489690159717, 0.36113489690159717]",False,False,lighter,True,0.5003454999532551,up,right,"(0, 0)","(0, 1)","(1, 0)","(0, 0)","(0, 0)","(0, 1)","(1, 0)","(0, 0)"
145,empty,146,9.079801412493335,0.13961646475174,0.168,none_u,False,,,3.8665700000710785,True,"[0.30761646475174, 0.30761646475174, 0.30761646475174]",True,True,darker,False,0.8173281999770552,down,up,"(1, 1)","(0, 0)","(0, 0)","(0, 0)","(1, 1)","(0, 0)","(0, 0)","(0, 0)"
146,interactor,147,9.274231074260282,-0.22867362279357126,0.0,135_top_u,True,3.5825702999718487,,3.8490312000503764,True,"[-0.22867362279357126, -0.22867362279357126, -0.22867362279357126]",False,True,lighter,,0.6160161999287084,down,right,"(1, 0)","(0, 1)","(0, 0)","(0, 0)","(0, 0)","(1, 1)","(0, 0)","(0, 0)"
147,interactor,148,9.721304899493441,0.04981586126101198,-0.168,45_bottom_l,True,3.5836101999739185,,3.8496908000670373,True,"[-0.11818413873898803, -0.11818413873898803, -0.11818413873898803]",False,True,darker,True,1.1011973998975009,right,up,"(0, 1)","(0, 0)","(0, 0)","(1, 0)","(1, 1)","(0, 0)","(0, 0)","(0, 0)"
148,interactor,149,9.841317101834951,0.28004382278964546,0.335,45_bottom_l,False,,,3.8666811999864876,True,"[0.6150438227896455, 0.6150438227896455, 0.6150438227896455]",True,False,lighter,True,0.4823180000530556,right,left,"(0, 0)","(0, 0)","(0, 0)","(1, 1)","(1, 0)","(0, 0)","(0, 0)","(0, 1)"
149,empty,150,9.25188201480657,0.2576937010032109,-0.168,none_l,False,,,3.867223900044337,True,"[0.08969370100321086, 0.08969370100321086, 0.08969370100321086]",True,True,lighter,False,1.1500982999568805,right,left,"(0, 0)","(0, 0)","(0, 0)","(1, 1)","(0, 0)","(0, 0)","(0, 0)","(1, 1)"
150,empty,151,9.59328792250459,0.18435931454578652,-0.335,none_d,False,,,3.86726629990153,True,"[-0.1506406854542135, -0.1506406854542135, -0.1506406854542135]",True,True,lighter,False,0.8341115000657737,up,down,"(0, 0)","(0, 0)","(1, 1)","(0, 0)","(0, 0)","(0, 0)","(1, 1)","(0, 0)"
151,empty,152,9.498830863991031,-0.04852324266716934,-0.168,none_l,False,,,3.8660215999698266,True,"[-0.21652324266716935, -0.21652324266716935, -0.21652324266716935]",True,True,darker,True,0.6841832000063732,right,left,"(0, 0)","(0, 0)","(0, 0)","(1, 1)","(0, 0)","(0, 0)","(0, 0)","(1, 1)"
152,empty,153,9.816802971696871,0.3754571319465742,0.0,none_l,False,,,3.8648614999838173,True,"[0.3754571319465742, 0.3754571319465742, 0.3754571319465742]",True,True,lighter,,0.634000200079754,right,left,"(0, 0)","(0, 0)","(0, 0)","(1, 1)","(0, 0)","(0, 0)","(0, 0)","(1, 1)"
153,interactor,154,9.543339135593563,0.09725319764226015,0.0,135_bottom_r,True,3.582966399961151,,3.849059999920428,True,"[0.09725319764226015, 0.09725319764226015, 0.09725319764226015]",False,True,lighter,,0.550237699993886,left,up,"(0, 1)","(1, 0)","(0, 0)","(0, 0)","(1, 1)","(0, 0)","(0, 0)","(0, 0)"
154,interactor,155,9.51989277545849,0.030796272884649964,-0.168,135_bottom_r,True,3.5815821000142023,,3.848740000044927,True,"[-0.13720372711535006, -0.13720372711535006, -0.13720372711535006]",False,True,darker,True,0.6336803999729455,left,up,"(0, 1)","(1, 0)","(0, 0)","(0, 0)","(1, 1)","(0, 0)","(0, 0)","(0, 0)"
155,interactor,156,9.845820397086415,0.3532445259354477,-0.335,135_bottom_d,False,,,3.8672509999014437,True,"[0.018244525935447675, 0.018244525935447675, 0.018244525935447675]",True,False,lighter,False,0.3335608000634238,up,down,"(0, 0)","(0, 0)","(1, 1)","(0, 0)","(0, 0)","(0, 0)","(0, 1)","(1, 0)"
156,empty,157,9.454817163008608,0.4377577867620692,-0.335,none_u,False,,,3.8665127999847755,True,"[0.1027577867620692, 0.1027577867620692, 0.1027577867620692]",True,True,darker,True,0.6657531999517232,down,up,"(1, 1)","(0, 0)","(0, 0)","(0, 0)","(1, 1)","(0, 0)","(0, 0)","(0, 0)"
157,empty,158,9.848918537121614,0.2602603100393656,-0.168,none_r,False,,,3.8662599000381306,True,"[0.0922603100393656, 0.0922603100393656, 0.0922603100393656]",True,True,lighter,False,0.400038699968718,left,right,"(0, 0)","(1, 1)","(0, 0)","(0, 0)","(0, 0)","(1, 1)","(0, 0)","(0, 0)"
158,interactor,159,9.841828017803131,0.24688767772533332,0.335,135_top_u,False,,,3.866389299975708,True,"[0.5818876777253333, 0.5818876777253333, 0.5818876777253333]",True,False,lighter,True,0.5164651999948546,down,up,"(1, 1)","(0, 0)","(0, 0)","(0, 0)","(0, 1)","(1, 0)","(0, 0)","(0, 0)"
159,interactor,160,9.435498519038669,0.3314229508802803,0.335,45_bottom_l,True,3.581707200035453,,3.849118600017391,True,"[0.6664229508802804, 0.6664229508802804, 0.6664229508802804]",False,True,lighter,True,0.7348899999633431,right,up,"(0, 1)","(0, 0)","(0, 0)","(1, 0)","(1, 1)","(0, 0)","(0, 0)","(0, 0)"
160,interactor,161,9.751202217169814,0.5033921771401049,-0.335,45_bottom_d,True,3.583542999927886,,3.849607199896127,True,"[0.16839217714010485, 0.16839217714010485, 0.16839217714010485]",False,True,space,,,up,right,"(0, 0)","(0, 1)","(1, 0)","(0, 0)","(0, 0)","(1, 1)","(0, 0)","(0, 0)"
161,empty,162,9.65722776424425,0.2373420505741903,0.168,none_l,False,,,3.865174400038086,True,"[0.4053420505741903, 0.4053420505741903, 0.4053420505741903]",True,True,lighter,True,0.6500381999649107,right,left,"(0, 0)","(0, 0)","(0, 0)","(1, 1)","(0, 0)","(0, 0)","(0, 0)","(1, 1)"
162,interactor,163,9.437202741641634,0.5565059854326246,-0.335,135_top_u,True,3.581914499984123,,3.849281999981031,True,"[0.22150598543262462, 0.22150598543262462, 0.22150598543262462]",False,True,lighter,False,0.5839161000913009,down,right,"(1, 0)","(0, 1)","(0, 0)","(0, 0)","(0, 0)","(1, 1)","(0, 0)","(0, 0)"
163,interactor,164,9.11636571973537,0.08184243069079936,-0.335,135_bottom_r,False,,,3.865459799999371,True,"[-0.25315756930920064, -0.25315756930920064, -0.25315756930920064]",True,False,darker,True,0.682807800010778,left,right,"(0, 0)","(1, 1)","(0, 0)","(0, 0)","(1, 0)","(0, 1)","(0, 0)","(0, 0)"
164,interactor,165,9.48239676464469,0.303186293322269,0.0,45_bottom_l,False,,,3.8657058000098914,True,"[0.303186293322269, 0.303186293322269, 0.303186293322269]",True,False,darker,,0.7671572999097407,right,left,"(0, 0)","(0, 0)","(0, 0)","(1, 1)","(1, 0)","(0, 0)","(0, 0)","(0, 1)"
165,interactor,166,9.61332160595818,-0.1232147279403639,0.335,135_bottom_d,True,3.5831390999956056,,3.849252499989234,True,"[0.21178527205963613, 0.21178527205963613, 0.21178527205963613]",False,True,lighter,True,0.484790499904193,up,left,"(0, 0)","(0, 0)","(1, 0)","(0, 1)","(0, 0)","(0, 0)","(0, 0)","(1, 1)"
166,empty,167,9.703027010469283,0.23907888351338052,0.0,none_u,True,3.582554900087416,left,3.84972070006188,True,"[0.23907888351338052, 0.23907888351338052, 0.23907888351338052]",False,False,lighter,,0.7822285000002012,down,left,"(1, 0)","(0, 0)","(0, 0)","(0, 1)","(1, 0)","(0, 0)","(0, 0)","(0, 1)"
167,empty,168,8.902380321696668,0.024076410198302506,-0.335,none_d,True,3.5828077000332996,left,3.8484409999800846,True,"[-0.31092358980169754, -0.31092358980169754, -0.31092358980169754]",False,False,darker,True,0.6845586999552324,up,right,"(0, 0)","(0, 1)","(1, 0)","(0, 0)","(0, 0)","(0, 1)","(1, 0)","(0, 0)"
168,empty,169,9.111201941527833,0.16913836129470605,-0.335,none_u,True,3.5827733000041917,left,3.8507699000183493,True,"[-0.16586163870529397, -0.16586163870529397, -0.16586163870529397]",False,False,darker,True,0.6987021999666467,down,left,"(1, 0)","(0, 0)","(0, 0)","(0, 1)","(1, 0)","(0, 0)","(0, 0)","(0, 1)"
169,empty,170,10.026382682834848,0.22330326484109245,0.168,none_u,True,3.5826391999144107,right,3.865093700005673,True,"[0.39130326484109246, 0.39130326484109246, 0.39130326484109246]",False,False,lighter,True,0.45152859995141625,down,right,"(1, 0)","(0, 1)","(0, 0)","(0, 0)","(1, 0)","(0, 1)","(0, 0)","(0, 0)"
170,empty,171,9.40019035592878,0.06907535671493624,0.168,none_u,True,3.5846355999819934,left,3.850134800071828,True,"[0.23707535671493624, 0.23707535671493624, 0.23707535671493624]",False,False,darker,False,1.0340935999993235,down,left,"(1, 0)","(0, 0)","(0, 0)","(0, 1)","(1, 0)","(0, 0)","(0, 0)","(0, 1)"
171,empty,172,9.516748606299958,0.37204869964129256,0.335,none_l,False,,,3.8659783001057804,True,"[0.7070486996412926, 0.7070486996412926, 0.7070486996412926]",True,True,lighter,True,0.400989199988544,right,left,"(0, 0)","(0, 0)","(0, 0)","(1, 1)","(0, 0)","(0, 0)","(0, 0)","(1, 1)"
172,empty,173,9.550086046083988,0.20736987916221553,-0.168,none_u,False,,,3.866981500061229,True,"[0.039369879162215515, 0.039369879162215515, 0.039369879162215515]",True,True,darker,True,0.5495846000267193,down,up,"(1, 1)","(0, 0)","(0, 0)","(0, 0)","(1, 1)","(0, 0)","(0, 0)","(0, 0)"
173,empty,174,9.207270148667394,0.25093308280825566,-0.335,none_l,False,,,3.86582800000906,True,"[-0.08406691719174436, -0.08406691719174436, -0.08406691719174436]",True,True,darker,True,0.6510632999707013,right,left,"(0, 0)","(0, 0)","(0, 0)","(1, 1)","(0, 0)","(0, 0)","(0, 0)","(1, 1)"
174,interactor,175,9.663210589076607,-0.08940543743195409,-0.168,45_top_u,True,3.5820086000021547,,3.848187700030394,True,"[-0.2574054374319541, -0.2574054374319541, -0.2574054374319541]",False,True,darker,True,0.5687609000597149,down,left,"(1, 0)","(0, 0)","(0, 0)","(0, 1)","(0, 0)","(0, 0)","(0, 0)","(1, 1)"
175,interactor,176,9.431794672240054,0.19261226047941638,-0.335,135_bottom_r,True,3.5824065000051633,,3.8477517999708652,True,"[-0.14238773952058364, -0.14238773952058364, -0.14238773952058364]",False,True,darker,True,0.6019054000498727,left,up,"(0, 1)","(1, 0)","(0, 0)","(0, 0)","(1, 1)","(0, 0)","(0, 0)","(0, 0)"
176,empty,177,9.455541299724063,0.045815734815925324,-0.335,none_r,False,,,3.8674872000701725,True,"[-0.2891842651840747, -0.2891842651840747, -0.2891842651840747]",True,True,darker,True,0.5992790999589488,left,right,"(0, 0)","(1, 1)","(0, 0)","(0, 0)","(0, 0)","(1, 1)","(0, 0)","(0, 0)"
177,interactor,178,9.55729702697541,0.1783882275472383,0.335,135_bottom_r,True,3.5834067999385297,,3.85074819996953,True,"[0.5133882275472383, 0.5133882275472383, 0.5133882275472383]",False,True,lighter,True,0.5323070000158623,left,up,"(0, 1)","(1, 0)","(0, 0)","(0, 0)","(1, 1)","(0, 0)","(0, 0)","(0, 0)"
178,interactor,179,9.223698697792631,0.2218468000272028,0.335,135_top_l,False,,,3.8658162999199703,True,"[0.5568468000272029, 0.5568468000272029, 0.5568468000272029]",True,False,lighter,True,0.5830929999938235,right,left,"(0, 0)","(0, 0)","(0, 0)","(1, 1)","(0, 0)","(0, 0)","(1, 0)","(0, 1)"
179,interactor,180,9.201864028293366,0.2742734313537316,0.335,135_bottom_d,True,3.583032299997285,,3.84935759997461,True,"[0.6092734313537316, 0.6092734313537316, 0.6092734313537316]",False,True,lighter,True,0.5344747999915853,up,left,"(0, 0)","(0, 0)","(1, 0)","(0, 1)","(0, 0)","(0, 0)","(0, 0)","(1, 1)"
180,interactor,181,9.51163200288516,-0.1151117925409563,0.168,45_bottom_l,True,3.5827048999490216,,3.851032599923201,True,"[0.05288820745904371, 0.05288820745904371, 0.05288820745904371]",False,True,darker,False,0.6158143000211567,right,up,"(0, 1)","(0, 0)","(0, 0)","(1, 0)","(1, 1)","(0, 0)","(0, 0)","(0, 0)"
181,empty,182,9.551042100273259,-0.2857774611571777,0.335,none_r,False,,,3.866236099973321,True,"[0.049222538842822294, 0.049222538842822294, 0.049222538842822294]",True,True,lighter,True,0.3008467999752611,left,right,"(0, 0)","(1, 1)","(0, 0)","(0, 0)","(0, 0)","(1, 1)","(0, 0)","(0, 0)"
182,interactor,183,9.612055174882572,0.05173968826130662,-0.335,135_bottom_d,False,,,3.8668878000462428,True,"[-0.28326031173869337, -0.28326031173869337, -0.28326031173869337]",True,False,darker,True,0.6010224999627098,up,down,"(0, 0)","(0, 0)","(1, 1)","(0, 0)","(0, 0)","(0, 0)","(0, 1)","(1, 0)"
183,empty,184,9.24485214441434,-0.09983239325974469,-0.168,none_d,True,3.5838106999872252,right,3.851167600019835,True,"[-0.2678323932597447, -0.2678323932597447, -0.2678323932597447]",False,False,darker,True,0.5665411000372842,up,left,"(0, 0)","(0, 0)","(1, 0)","(0, 1)","(0, 0)","(0, 0)","(1, 0)","(0, 1)"
184,interactor,185,9.541552792113173,0.39533667650270105,0.168,135_top_u,True,3.582192500005476,,3.850599700002931,True,"[0.563336676502701, 0.563336676502701, 0.563336676502701]",False,True,lighter,True,0.5154315999243408,down,right,"(1, 0)","(0, 1)","(0, 0)","(0, 0)","(0, 0)","(1, 1)","(0, 0)","(0, 0)"
185,empty,186,9.633679791073067,-0.0019325694235144686,-0.168,none_r,True,3.57467290002387,right,3.840788000030443,True,"[-0.16993256942351448, -0.16993256942351448, -0.16993256942351448]",False,False,lighter,False,0.8669504999415949,left,down,"(0, 0)","(1, 0)","(0, 1)","(0, 0)","(0, 0)","(1, 0)","(0, 1)","(0, 0)"
186,interactor,187,9.19402865738608,0.2421421849468743,-0.168,45_bottom_l,False,,,3.866138600045815,True,"[0.0741421849468743, 0.0741421849468743, 0.0741421849468743]",True,False,darker,True,0.5336070999037474,right,left,"(0, 0)","(0, 0)","(0, 0)","(1, 1)","(1, 0)","(0, 0)","(0, 0)","(0, 1)"
187,empty,188,9.62371601281158,0.2698771133912352,0.0,none_u,True,3.5837642000988126,right,3.849446600070223,True,"[0.2698771133912352, 0.2698771133912352, 0.2698771133912352]",False,False,lighter,,0.5846436999272555,down,right,"(1, 0)","(0, 1)","(0, 0)","(0, 0)","(1, 0)","(0, 1)","(0, 0)","(0, 0)"
188,empty,189,9.465234808868843,0.063761102090609,-0.335,none_u,False,,,3.865657899994403,True,"[-0.27123889790939104, -0.27123889790939104, -0.27123889790939104]",True,True,darker,True,0.48435339995194227,down,up,"(1, 1)","(0, 0)","(0, 0)","(0, 0)","(1, 1)","(0, 0)","(0, 0)","(0, 0)"
189,interactor,190,9.505806657231636,0.19748566262270295,-0.168,45_top_u,False,,,3.8657411999301985,True,"[0.02948566262270294, 0.02948566262270294, 0.02948566262270294]",True,False,darker,True,0.6173710000002757,down,up,"(1, 1)","(0, 0)","(0, 0)","(0, 0)","(0, 1)","(0, 0)","(0, 0)","(1, 0)"
190,interactor,191,9.970115106521098,-0.00029377836525379397,0.168,45_top_r,False,,,3.8663151999935508,True,"[0.16770622163474622, 0.16770622163474622, 0.16770622163474622]",True,False,lighter,True,0.38401130004785955,left,right,"(0, 0)","(1, 1)","(0, 0)","(0, 0)","(0, 0)","(0, 1)","(1, 0)","(0, 0)"
191,interactor,192,9.580193158438746,0.02214529064144302,0.335,45_bottom_d,False,,,3.865543199935928,True,"[0.35714529064144307, 0.35714529064144307, 0.35714529064144307]",True,False,lighter,True,0.5014714000280946,up,down,"(0, 0)","(0, 0)","(1, 1)","(0, 0)","(0, 0)","(1, 0)","(0, 1)","(0, 0)"
192,interactor,193,9.8171379128441,0.10326184302223215,-0.168,135_top_l,True,3.582292899955064,,3.865948299993761,True,"[-0.06473815697776786, -0.06473815697776786, -0.06473815697776786]",False,True,lighter,False,0.5160964999813586,right,down,"(0, 0)","(0, 0)","(0, 1)","(1, 0)","(0, 0)","(0, 0)","(1, 1)","(0, 0)"
193,interactor,194,9.599317329528917,0.2797339984858499,-0.168,135_bottom_d,True,3.5826001999666914,,3.8510261999908835,True,"[0.11173399848584989, 0.11173399848584989, 0.11173399848584989]",False,True,lighter,False,0.965938700013794,up,left,"(0, 0)","(0, 0)","(1, 0)","(0, 1)","(0, 0)","(0, 0)","(0, 0)","(1, 1)"
194,empty,195,9.450984086685375,0.39862295277083976,0.168,none_u,False,,,3.866102800006047,True,"[0.5666229527708397, 0.5666229527708397, 0.5666229527708397]",True,True,lighter,True,0.5333271999843419,down,up,"(1, 1)","(0, 0)","(0, 0)","(0, 0)","(1, 1)","(0, 0)","(0, 0)","(0, 0)"
195,empty,196,9.446107547254096,0.13271155654227001,0.168,none_d,True,3.5831227999879047,left,3.85078620002605,True,"[0.30071155654227, 0.30071155654227, 0.30071155654227]",False,False,lighter,True,0.5340194000164047,up,right,"(0, 0)","(0, 1)","(1, 0)","(0, 0)","(0, 0)","(0, 1)","(1, 0)","(0, 0)"
196,interactor,197,9.829750003086618,0.19807361137406862,-0.168,45_top_r,False,,,3.8663260999601334,True,"[0.03007361137406861, 0.03007361137406861, 0.03007361137406861]",True,False,lighter,False,0.583641599980183,left,right,"(0, 0)","(1, 1)","(0, 0)","(0, 0)","(0, 0)","(0, 1)","(1, 0)","(0, 0)"
197,empty,198,9.520234759434429,0.8300156948829395,0.335,none_u,False,,,3.866452099988237,True,"[1.1650156948829395, 1.1650156948829395, 1.1650156948829395]",True,True,lighter,True,0.5332151000620797,down,up,"(1, 1)","(0, 0)","(0, 0)","(0, 0)","(1, 1)","(0, 0)","(0, 0)","(0, 0)"
198,interactor,199,9.872539304528887,0.07810528962041235,0.0,45_top_u,True,3.5834420999744907,,3.8659770999802276,True,"[0.07810528962041235, 0.07810528962041235, 0.07810528962041235]",False,True,lighter,,0.5337667999556288,down,left,"(1, 0)","(0, 0)","(0, 0)","(0, 1)","(0, 0)","(0, 0)","(0, 0)","(1, 1)"
199,interactor,200,9.614655187254398,0.6506554365376721,0.0,135_bottom_d,True,3.582576899905689,,3.849569799960591,True,"[0.6506554365376721, 0.6506554365376721, 0.6506554365376721]",False,True,lighter,,0.5340022000018507,up,left,"(0, 0)","(0, 0)","(1, 0)","(0, 1)","(0, 0)","(0, 0)","(0, 0)","(1, 1)"
200,empty,201,9.848818739825719,-0.2535161633665105,0.0,none_d,False,,,3.8664886000333354,True,"[-0.2535161633665105, -0.2535161633665105, -0.2535161633665105]",True,True,lighter,,0.6851644999114797,up,down,"(0, 0)","(0, 0)","(1, 1)","(0, 0)","(0, 0)","(0, 0)","(1, 1)","(0, 0)"
201,empty,202,9.114666364437523,0.3991675963030308,-0.168,none_l,True,3.582475299946964,left,3.8502990999259055,True,"[0.23116759630303077, 0.23116759630303077, 0.23116759630303077]",False,False,lighter,False,1.3496306000743061,right,down,"(0, 0)","(0, 0)","(0, 1)","(1, 0)","(0, 0)","(0, 0)","(0, 1)","(1, 0)"
202,interactor,203,9.702613538730786,0.2421775980726933,0.0,135_bottom_d,False,,,3.865160599933006,True,"[0.2421775980726933, 0.2421775980726933, 0.2421775980726933]",True,False,lighter,,0.4341486000921577,up,down,"(0, 0)","(0, 0)","(1, 1)","(0, 0)","(0, 0)","(0, 0)","(0, 1)","(1, 0)"
203,empty,204,9.78965688454085,0.07751624566244694,0.335,none_r,True,3.58308379992377,right,3.8501663999632,True,"[0.41251624566244693, 0.41251624566244693, 0.41251624566244693]",False,False,lighter,True,0.4508899999782443,left,down,"(0, 0)","(1, 0)","(0, 1)","(0, 0)","(0, 0)","(1, 0)","(0, 1)","(0, 0)"
204,interactor,205,9.386947994339472,0.37059671976907127,-0.335,135_top_u,False,,,3.866327900090255,True,"[0.03559671976907125, 0.03559671976907125, 0.03559671976907125]",True,False,darker,True,0.5825490999268368,down,up,"(1, 1)","(0, 0)","(0, 0)","(0, 0)","(0, 1)","(1, 0)","(0, 0)","(0, 0)"
205,interactor,206,9.339875307037966,0.2188202158784447,0.168,135_top_l,True,3.5831614000489935,,3.849447499960661,True,"[0.38682021587844473, 0.38682021587844473, 0.38682021587844473]",False,True,lighter,True,0.5001680999994278,right,down,"(0, 0)","(0, 0)","(0, 1)","(1, 0)","(0, 0)","(0, 0)","(1, 1)","(0, 0)"
206,interactor,207,9.480767124054436,0.08153814266345341,0.168,135_bottom_r,False,,,3.865409299964085,True,"[0.24953814266345342, 0.24953814266345342, 0.24953814266345342]",True,False,lighter,True,0.46698020002804697,left,right,"(0, 0)","(1, 1)","(0, 0)","(0, 0)","(1, 0)","(0, 1)","(0, 0)","(0, 0)"
207,empty,208,9.501534478298957,0.06275612074809561,0.0,none_d,False,,,3.8650448999833316,True,"[0.06275612074809561, 0.06275612074809561, 0.06275612074809561]",True,True,lighter,,0.38385150011163205,up,down,"(0, 0)","(0, 0)","(1, 1)","(0, 0)","(0, 0)","(0, 0)","(1, 1)","(0, 0)"
208,interactor,209,9.086048348976153,0.3279500053644876,0.0,135_top_l,False,,,3.8674907999811694,True,"[0.3279500053644876, 0.3279500053644876, 0.3279500053644876]",True,False,lighter,,0.43442760000471026,right,left,"(0, 0)","(0, 0)","(0, 0)","(1, 1)","(0, 0)","(0, 0)","(1, 0)","(0, 1)"
209,empty,210,9.277484253580889,0.15993840577784554,0.335,none_l,True,3.5831932000583038,right,3.850323099992238,True,"[0.49493840577784554, 0.49493840577784554, 0.49493840577784554]",False,False,darker,False,0.6160347000695765,right,up,"(0, 1)","(0, 0)","(0, 0)","(1, 0)","(0, 1)","(0, 0)","(0, 0)","(1, 0)"
210,interactor,211,9.5762270122835,0.07322121105883116,0.0,45_top_r,True,3.58316979999654,,3.848404600052163,True,"[0.07322121105883116, 0.07322121105883116, 0.07322121105883116]",False,True,space,,,left,down,"(0, 0)","(1, 0)","(0, 1)","(0, 0)","(0, 0)","(0, 0)","(1, 1)","(0, 0)"
211,empty,212,9.316443490180122,0.20652138607921705,0.335,none_l,False,,,3.8654145000036806,True,"[0.5415213860792171, 0.5415213860792171, 0.5415213860792171]",True,True,lighter,True,0.4004804000724107,right,left,"(0, 0)","(0, 0)","(0, 0)","(1, 1)","(0, 0)","(0, 0)","(0, 0)","(1, 1)"
212,interactor,213,9.418456399191255,0.06856493497632554,0.335,135_bottom_d,False,,,3.868131799972616,True,"[0.40356493497632556, 0.40356493497632556, 0.40356493497632556]",True,False,lighter,True,0.3840038999915123,up,down,"(0, 0)","(0, 0)","(1, 1)","(0, 0)","(0, 0)","(0, 0)","(0, 1)","(1, 0)"
213,interactor,214,9.551015862014191,-0.11211606240075309,0.0,135_bottom_r,False,,,3.866710799979046,True,"[-0.11211606240075309, -0.11211606240075309, -0.11211606240075309]",True,False,darker,,0.4339983999961987,left,right,"(0, 0)","(1, 1)","(0, 0)","(0, 0)","(1, 0)","(0, 1)","(0, 0)","(0, 0)"
214,empty,215,9.621515683175376,0.40652463187065524,0.335,none_u,True,3.5827296000206843,right,3.8493977999314666,True,"[0.7415246318706552, 0.7415246318706552, 0.7415246318706552]",False,False,lighter,True,0.46625509997829795,down,right,"(1, 0)","(0, 1)","(0, 0)","(0, 0)","(1, 0)","(0, 1)","(0, 0)","(0, 0)"
215,interactor,216,9.15945285426357,-0.12121560923312488,0.335,45_bottom_d,True,3.5821375999366865,,3.8505823999876156,True,"[0.21378439076687514, 0.21378439076687514, 0.21378439076687514]",False,True,lighter,True,0.43235599994659424,up,right,"(0, 0)","(0, 1)","(1, 0)","(0, 0)","(0, 0)","(1, 1)","(0, 0)","(0, 0)"
216,interactor,217,9.30237318171752,0.04160038891494024,0.168,45_bottom_d,True,3.582908199983649,,3.8490579000208527,True,"[0.20960038891494026, 0.20960038891494026, 0.20960038891494026]",False,True,lighter,True,0.45136169996112585,up,right,"(0, 0)","(0, 1)","(1, 0)","(0, 0)","(0, 0)","(1, 1)","(0, 0)","(0, 0)"
217,empty,218,9.621390410854016,0.047310952763536696,-0.168,none_u,False,,,3.8647210999624804,True,"[-0.12068904723646331, -0.12068904723646331, -0.12068904723646331]",True,True,lighter,False,0.36809660005383193,down,up,"(1, 1)","(0, 0)","(0, 0)","(0, 0)","(1, 1)","(0, 0)","(0, 0)","(0, 0)"
218,interactor,219,9.513630489858437,0.15676457163770766,0.335,45_top_r,False,,,3.865431800018996,True,"[0.4917645716377077, 0.4917645716377077, 0.4917645716377077]",True,False,lighter,True,0.36840929999016225,left,right,"(0, 0)","(1, 1)","(0, 0)","(0, 0)","(0, 0)","(0, 1)","(1, 0)","(0, 0)"
219,empty,220,9.400778499965085,0.1700301090192565,0.0,none_d,False,,,3.867086600046605,True,"[0.1700301090192565, 0.1700301090192565, 0.1700301090192565]",True,True,lighter,,0.4496922999387607,up,down,"(0, 0)","(0, 0)","(1, 1)","(0, 0)","(0, 0)","(0, 0)","(1, 1)","(0, 0)"
220,empty,221,9.450895660611462,-0.13487954022035067,0.335,none_l,True,3.584358200081624,left,3.8515984000405297,True,"[0.20012045977964935, 0.20012045977964935, 0.20012045977964935]",False,False,space,,,right,down,"(0, 0)","(0, 0)","(0, 1)","(1, 0)","(0, 0)","(0, 0)","(0, 1)","(1, 0)"
221,interactor,222,9.406510135647215,0.036036586248683736,-0.335,135_top_u,True,3.582669400027953,,3.8498931999783963,True,"[-0.2989634137513163, -0.2989634137513163, -0.2989634137513163]",False,True,darker,True,0.5325433999532834,down,right,"(1, 0)","(0, 1)","(0, 0)","(0, 0)","(0, 0)","(1, 1)","(0, 0)","(0, 0)"
222,interactor,223,9.764669702211325,0.14639803413301816,0.335,45_top_u,True,3.5829300999175757,,3.8500912999734282,True,"[0.4813980341330182, 0.4813980341330182, 0.4813980341330182]",False,True,lighter,True,0.40043699997477233,down,left,"(1, 0)","(0, 0)","(0, 0)","(0, 1)","(0, 0)","(0, 0)","(0, 0)","(1, 1)"
223,empty,224,9.613976193771816,0.15416998491285597,0.168,none_u,False,,,3.865484399953857,True,"[0.322169984912856, 0.322169984912856, 0.322169984912856]",True,True,lighter,True,0.501381800044328,down,up,"(1, 1)","(0, 0)","(0, 0)","(0, 0)","(1, 1)","(0, 0)","(0, 0)","(0, 0)"
224,empty,225,9.501445914030521,0.05464819610044745,-0.335,none_l,False,,,3.866745000006631,True,"[-0.28035180389955255, -0.28035180389955255, -0.28035180389955255]",True,True,darker,True,0.46847299998626113,right,left,"(0, 0)","(0, 0)","(0, 0)","(1, 1)","(0, 0)","(0, 0)","(0, 0)","(1, 1)"
225,empty,226,9.232678720273675,0.2919948206355653,0.0,none_d,True,3.5823671999387443,left,3.849378200015053,True,"[0.2919948206355653, 0.2919948206355653, 0.2919948206355653]",False,False,lighter,,0.5498460999224335,up,right,"(0, 0)","(0, 1)","(1, 0)","(0, 0)","(0, 0)","(0, 1)","(1, 0)","(0, 0)"
226,empty,227,9.621285392325932,0.10054273254323368,0.0,none_l,False,,,3.866398000041954,True,"[0.10054273254323368, 0.10054273254323368, 0.10054273254323368]",True,True,lighter,,0.7009492999641225,right,left,"(0, 0)","(0, 0)","(0, 0)","(1, 1)","(0, 0)","(0, 0)","(0, 0)","(1, 1)"
227,empty,228,9.57900173929641,-0.15327632826649937,0.0,none_r,False,,,3.866468399995938,True,"[-0.15327632826649937, -0.15327632826649937, -0.15327632826649937]",True,True,lighter,,0.8505920000607148,left,right,"(0, 0)","(1, 1)","(0, 0)","(0, 0)","(0, 0)","(1, 1)","(0, 0)","(0, 0)"
228,interactor,229,9.545477575835728,-0.024836730552316888,0.335,135_top_u,False,,,3.8661065000342205,True,"[0.31016326944768313, 0.31016326944768313, 0.31016326944768313]",True,False,lighter,True,0.9008821999887004,down,up,"(1, 1)","(0, 0)","(0, 0)","(0, 0)","(0, 1)","(1, 0)","(0, 0)","(0, 0)"
229,interactor,230,9.880881085488106,0.20366032385791955,-0.335,135_top_l,True,3.5821124999783933,,3.866639099898748,True,"[-0.13133967614208047, -0.13133967614208047, -0.13133967614208047]",False,True,lighter,False,0.7991958000930026,right,down,"(0, 0)","(0, 0)","(0, 1)","(1, 0)","(0, 0)","(0, 0)","(1, 1)","(0, 0)"
230,empty,231,9.535946774228364,0.17278411484656225,0.335,none_r,False,,,3.867532200063579,True,"[0.5077841148465623, 0.5077841148465623, 0.5077841148465623]",True,True,space,,,left,right,"(0, 0)","(1, 1)","(0, 0)","(0, 0)","(0, 0)","(1, 1)","(0, 0)","(0, 0)"
231,empty,232,9.4335898191387,0.12213903167860976,0.168,none_r,False,,,3.8668640999821946,True,"[0.29013903167860977, 0.29013903167860977, 0.29013903167860977]",True,True,lighter,True,0.6161312001058832,left,right,"(0, 0)","(1, 1)","(0, 0)","(0, 0)","(0, 0)","(1, 1)","(0, 0)","(0, 0)"
232,interactor,233,9.50308778517513,-0.005923052760207825,0.0,45_bottom_l,False,,,3.8653042999794707,True,"[-0.005923052760207825, -0.005923052760207825, -0.005923052760207825]",True,False,lighter,,0.5507168000331149,right,left,"(0, 0)","(0, 0)","(0, 0)","(1, 1)","(1, 0)","(0, 0)","(0, 0)","(0, 1)"
233,interactor,234,9.586284729059283,-0.029082878084965263,0.168,135_top_u,True,3.5830167999956757,,3.8492578000295907,True,"[0.13891712191503475, 0.13891712191503475, 0.13891712191503475]",False,True,lighter,True,0.566907599917613,down,right,"(1, 0)","(0, 1)","(0, 0)","(0, 0)","(0, 0)","(1, 1)","(0, 0)","(0, 0)"
234,empty,235,9.595581430275056,0.14618058350174812,-0.168,none_r,False,,,3.8669917999068275,True,"[-0.021819416498251892, -0.021819416498251892, -0.021819416498251892]",True,True,darker,True,0.7154468001099303,left,right,"(0, 0)","(1, 1)","(0, 0)","(0, 0)","(0, 0)","(1, 1)","(0, 0)","(0, 0)"
235,empty,236,9.600763910883186,0.006890194070259065,-0.335,none_u,True,3.5828571999445558,right,3.8488174999365583,True,"[-0.3281098059297409, -0.3281098059297409, -0.3281098059297409]",False,False,darker,True,0.7011414000298828,down,right,"(1, 0)","(0, 1)","(0, 0)","(0, 0)","(1, 0)","(0, 1)","(0, 0)","(0, 0)"
236,empty,237,9.486022891326352,0.1959277278575982,0.335,none_u,False,,,3.8575523000909016,True,"[0.5309277278575982, 0.5309277278575982, 0.5309277278575982]",True,True,lighter,True,0.6170653000008315,down,up,"(1, 1)","(0, 0)","(0, 0)","(0, 0)","(1, 1)","(0, 0)","(0, 0)","(0, 0)"
237,interactor,238,9.476006915956301,0.20284507657857612,-0.335,135_bottom_r,True,3.582051399978809,,3.8491267000790685,True,"[-0.1321549234214239, -0.1321549234214239, -0.1321549234214239]",False,True,darker,True,0.5840578998904675,left,up,"(0, 1)","(1, 0)","(0, 0)","(0, 0)","(1, 1)","(0, 0)","(0, 0)","(0, 0)"
238,empty,239,9.466888860821957,0.16009815614227568,-0.335,none_d,True,3.5840663000708446,right,3.849970000097528,True,"[-0.17490184385772434, -0.17490184385772434, -0.17490184385772434]",False,False,darker,True,0.5681349999504164,up,left,"(0, 0)","(0, 0)","(1, 0)","(0, 1)","(0, 0)","(0, 0)","(1, 0)","(0, 1)"
239,empty,240,9.243888311713816,0.00958289834928458,0.0,none_d,False,,,3.8655750999459997,True,"[0.00958289834928458, 0.00958289834928458, 0.00958289834928458]",True,True,lighter,,0.5005304000806063,up,down,"(0, 0)","(0, 0)","(1, 1)","(0, 0)","(0, 0)","(0, 0)","(1, 1)","(0, 0)"
240,interactor,241,9.451057055460957,0.08066185813656812,-0.168,135_bottom_r,False,,,3.8666393000166863,True,"[-0.08733814186343189, -0.08733814186343189, -0.08733814186343189]",True,False,space,,,left,right,"(0, 0)","(1, 1)","(0, 0)","(0, 0)","(1, 0)","(0, 1)","(0, 0)","(0, 0)"
241,empty,242,9.485358905700243,-0.07245824193368489,0.0,none_r,True,3.5835424000397325,left,3.8494518999941647,True,"[-0.07245824193368489, -0.07245824193368489, -0.07245824193368489]",False,False,darker,,0.6512638001004234,left,up,"(0, 1)","(1, 0)","(0, 0)","(0, 0)","(0, 1)","(1, 0)","(0, 0)","(0, 0)"
242,interactor,243,9.482492591742334,0.28553976249825846,0.335,45_bottom_d,True,3.581495300051756,,3.848639199975878,True,"[0.6205397624982585, 0.6205397624982585, 0.6205397624982585]",False,True,lighter,True,0.6503911000909284,up,right,"(0, 0)","(0, 1)","(1, 0)","(0, 0)","(0, 0)","(1, 1)","(0, 0)","(0, 0)"
243,interactor,244,9.870576895020726,-0.16073547832825677,-0.168,135_bottom_r,False,,,3.8666366999968886,True,"[-0.3287354783282568, -0.3287354783282568, -0.3287354783282568]",True,False,darker,True,0.600434000021778,left,right,"(0, 0)","(1, 1)","(0, 0)","(0, 0)","(1, 0)","(0, 1)","(0, 0)","(0, 0)"
244,empty,245,9.176194205710354,0.34103953094800527,-0.168,none_d,False,,,3.8656953999307007,True,"[0.17303953094800525, 0.17303953094800525, 0.17303953094800525]",True,True,lighter,False,0.4833811999997124,up,down,"(0, 0)","(0, 0)","(1, 1)","(0, 0)","(0, 0)","(0, 0)","(1, 1)","(0, 0)"
245,empty,246,9.623445113010192,-0.1172264925811253,0.168,none_d,False,,,3.8671375999692827,True,"[0.05077350741887471, 0.05077350741887471, 0.05077350741887471]",True,True,lighter,True,0.4673019000329077,up,down,"(0, 0)","(0, 0)","(1, 1)","(0, 0)","(0, 0)","(0, 0)","(1, 1)","(0, 0)"
246,interactor,247,9.721668722447605,0.040721563808742825,-0.168,45_top_r,True,3.583839699975215,,3.8509817000012845,True,"[-0.12727843619125717, -0.12727843619125717, -0.12727843619125717]",False,True,darker,True,0.5994226000038907,left,down,"(0, 0)","(1, 0)","(0, 1)","(0, 0)","(0, 0)","(0, 0)","(1, 1)","(0, 0)"
247,empty,248,9.483190658374456,0.30256183959502486,0.168,none_u,True,3.5823645999189466,left,3.849158799974248,True,"[0.47056183959502484, 0.47056183959502484, 0.47056183959502484]",False,False,lighter,True,0.48290339997038245,down,left,"(1, 0)","(0, 0)","(0, 0)","(0, 1)","(1, 0)","(0, 0)","(0, 0)","(0, 1)"
248,empty,249,9.391246694955232,0.24775340035914975,0.0,none_l,False,,,3.865303299971856,True,"[0.24775340035914975, 0.24775340035914975, 0.24775340035914975]",True,True,lighter,,0.43452110001817346,right,left,"(0, 0)","(0, 0)","(0, 0)","(1, 1)","(0, 0)","(0, 0)","(0, 0)","(1, 1)"
249,interactor,250,9.728893535025716,0.22513710312556146,0.168,45_top_u,True,3.582083999994211,,3.8493461000034586,True,"[0.3931371031255615, 0.3931371031255615, 0.3931371031255615]",False,True,lighter,True,0.5168021999998018,down,left,"(1, 0)","(0, 0)","(0, 0)","(0, 1)","(0, 0)","(0, 0)","(0, 0)","(1, 1)"
250,empty,251,9.550230632778248,0.4182957167822807,0.168,none_l,True,3.584175599971786,left,3.8514765000436455,True,"[0.5862957167822808, 0.5862957167822808, 0.5862957167822808]",False,False,space,,,right,down,"(0, 0)","(0, 0)","(0, 1)","(1, 0)","(0, 0)","(0, 0)","(0, 1)","(1, 0)"
251,interactor,252,9.545787368507257,0.3634803035922583,0.168,45_top_r,True,3.583544500055723,,3.8509575000498444,True,"[0.5314803035922583, 0.5314803035922583, 0.5314803035922583]",False,True,lighter,True,0.5663003999507055,left,down,"(0, 0)","(1, 0)","(0, 1)","(0, 0)","(0, 0)","(0, 0)","(1, 1)","(0, 0)"
252,empty,253,9.4189150085645,0.11281379776384645,0.168,none_r,True,3.5838368999538943,left,3.8497056999476627,True,"[0.28081379776384646, 0.28081379776384646, 0.28081379776384646]",False,False,darker,False,0.6685754000209272,left,up,"(0, 1)","(1, 0)","(0, 0)","(0, 0)","(0, 1)","(1, 0)","(0, 0)","(0, 0)"
253,empty,254,9.385151616470791,-0.1566315162280337,0.168,none_u,True,3.582625199924223,right,3.8497230999637395,True,"[0.011368483771966309, 0.011368483771966309, 0.011368483771966309]",False,False,darker,False,0.8003177000209689,down,right,"(1, 0)","(0, 1)","(0, 0)","(0, 0)","(1, 0)","(0, 1)","(0, 0)","(0, 0)"
254,interactor,255,9.219413682854439,0.4631840360504269,-0.335,45_top_u,False,,,3.8645869999891147,True,"[0.12818403605042689, 0.12818403605042689, 0.12818403605042689]",True,False,darker,True,0.5502373999916017,down,up,"(1, 1)","(0, 0)","(0, 0)","(0, 0)","(0, 1)","(0, 0)","(0, 0)","(1, 0)"
255,empty,256,9.572234904750673,0.06427493827413072,-0.168,none_u,False,,,3.8668510999996215,True,"[-0.10372506172586929, -0.10372506172586929, -0.10372506172586929]",True,True,darker,True,0.5493952999822795,down,up,"(1, 1)","(0, 0)","(0, 0)","(0, 0)","(1, 1)","(0, 0)","(0, 0)","(0, 0)"
256,empty,257,9.34228914372443,0.08442905024805339,-0.168,none_d,False,,,3.8661717999493703,True,"[-0.08357094975194662, -0.08357094975194662, -0.08357094975194662]",True,True,darker,True,0.6333579000784084,up,down,"(0, 0)","(0, 0)","(1, 1)","(0, 0)","(0, 0)","(0, 0)","(1, 1)","(0, 0)"
257,empty,258,9.447363163926191,0.35034352560365245,0.0,none_u,False,,,3.8668253999203444,True,"[0.35034352560365245, 0.35034352560365245, 0.35034352560365245]",True,True,darker,,1.2165165999904275,down,up,"(1, 1)","(0, 0)","(0, 0)","(0, 0)","(1, 1)","(0, 0)","(0, 0)","(0, 0)"
258,empty,259,9.532577583975703,0.26244556482001435,0.0,none_r,True,3.581067599938251,left,3.847995699965395,True,"[0.26244556482001435, 0.26244556482001435, 0.26244556482001435]",False,False,lighter,,0.8344001999357715,left,up,"(0, 1)","(1, 0)","(0, 0)","(0, 0)","(0, 1)","(1, 0)","(0, 0)","(0, 0)"
259,empty,260,9.823939980817908,0.36542953477284634,-0.335,none_l,True,3.581696500070393,left,3.865687100100331,True,"[0.030429534772846323, 0.030429534772846323, 0.030429534772846323]",False,False,lighter,False,0.5670799999497831,right,down,"(0, 0)","(0, 0)","(0, 1)","(1, 0)","(0, 0)","(0, 0)","(0, 1)","(1, 0)"
260,interactor,261,9.162114841022571,0.13585828963404123,0.168,135_top_u,False,,,3.859084099996835,True,"[0.30385828963404127, 0.30385828963404127, 0.30385828963404127]",True,False,lighter,True,0.8829639999894425,down,up,"(1, 1)","(0, 0)","(0, 0)","(0, 0)","(0, 1)","(1, 0)","(0, 0)","(0, 0)"
261,interactor,262,9.033949850121651,0.1527671939876169,-0.335,45_bottom_l,False,,,3.8592476000776514,True,"[-0.18223280601238312, -0.18223280601238312, -0.18223280601238312]",True,False,darker,True,0.5984742000000551,right,left,"(0, 0)","(0, 0)","(0, 0)","(1, 1)","(1, 0)","(0, 0)","(0, 0)","(0, 1)"
262,empty,263,9.053792379002902,-0.10139617920059249,-0.168,none_d,True,3.574131900095381,left,3.8407870000228286,True,"[-0.2693961792005925, -0.2693961792005925, -0.2693961792005925]",False,False,darker,True,0.6352164000272751,up,right,"(0, 0)","(0, 1)","(1, 0)","(0, 0)","(0, 0)","(0, 1)","(1, 0)","(0, 0)"
263,interactor,264,9.599915748152876,0.21984167382440067,-0.168,135_top_u,False,,,3.858217400033027,True,"[0.051841673824400664, 0.051841673824400664, 0.051841673824400664]",True,False,darker,True,0.56568919995334,down,up,"(1, 1)","(0, 0)","(0, 0)","(0, 0)","(0, 1)","(1, 0)","(0, 0)","(0, 0)"
264,interactor,265,9.956130540487981,0.365181257907084,0.168,135_top_u,True,3.574966099928133,,3.858246799907647,True,"[0.533181257907084, 0.533181257907084, 0.533181257907084]",False,True,lighter,True,0.4676401000469923,down,right,"(1, 0)","(0, 1)","(0, 0)","(0, 0)","(0, 0)","(1, 1)","(0, 0)","(0, 0)"
265,empty,266,9.691972606564383,0.17167977121913436,0.168,none_d,True,3.5742252999916673,right,3.8411791999824345,True,"[0.3396797712191344, 0.3396797712191344, 0.3396797712191344]",False,False,lighter,True,0.5014295000582933,up,left,"(0, 0)","(0, 0)","(1, 0)","(0, 1)","(0, 0)","(0, 0)","(1, 0)","(0, 1)"
266,interactor,267,9.904667440437668,0.4037606528646184,-0.168,45_bottom_l,True,3.5736908999970183,,3.8571145000169054,True,"[0.23576065286461836, 0.23576065286461836, 0.23576065286461836]",False,True,darker,True,0.45074779994320124,right,up,"(0, 1)","(0, 0)","(0, 0)","(1, 0)","(1, 1)","(0, 0)","(0, 0)","(0, 0)"
267,interactor,268,9.270922716133745,0.029307215869458364,0.0,135_top_u,False,,,3.8584588000085205,True,"[0.029307215869458364, 0.029307215869458364, 0.029307215869458364]",True,False,lighter,,0.43269889999646693,down,up,"(1, 1)","(0, 0)","(0, 0)","(0, 0)","(0, 1)","(1, 0)","(0, 0)","(0, 0)"
268,interactor,269,9.472214346059548,0.15381610799612752,-0.335,135_bottom_d,False,,,3.858419100055471,True,"[-0.1811838920038725, -0.1811838920038725, -0.1811838920038725]",True,False,lighter,False,0.7507712000515312,up,down,"(0, 0)","(0, 0)","(1, 1)","(0, 0)","(0, 0)","(0, 0)","(0, 1)","(1, 0)"
269,interactor,270,9.470791723743165,0.24578398611939073,-0.335,45_bottom_d,False,,,3.8576429000822827,True,"[-0.08921601388060929, -0.08921601388060929, -0.08921601388060929]",True,False,lighter,False,0.4170053999405354,up,down,"(0, 0)","(0, 0)","(1, 1)","(0, 0)","(0, 0)","(1, 0)","(0, 1)","(0, 0)"
270,interactor,271,9.8345281238137,0.058674362627552004,0.0,45_top_r,True,3.574846399948001,,3.8603329999605194,True,"[0.058674362627552004, 0.058674362627552004, 0.058674362627552004]",False,True,lighter,,0.49919579993002117,left,down,"(0, 0)","(1, 0)","(0, 1)","(0, 0)","(0, 0)","(0, 0)","(1, 1)","(0, 0)"
271,empty,272,8.834006712056993,0.22142748369031923,-0.335,none_u,True,3.574192399973981,right,3.8407835999969393,True,"[-0.1135725163096808, -0.1135725163096808, -0.1135725163096808]",False,False,darker,True,0.5332890000427142,down,right,"(1, 0)","(0, 1)","(0, 0)","(0, 0)","(1, 0)","(0, 1)","(0, 0)","(0, 0)"
272,empty,273,9.729432558322058,-0.08046763082831654,0.335,none_l,False,,,3.8575454000383615,True,"[0.2545323691716835, 0.2545323691716835, 0.2545323691716835]",True,True,lighter,True,0.4503029999323189,right,left,"(0, 0)","(0, 0)","(0, 0)","(1, 1)","(0, 0)","(0, 0)","(0, 0)","(1, 1)"
273,interactor,274,9.318996157025364,0.009655781922019019,0.0,135_bottom_d,False,,,3.8586806000676006,True,"[0.009655781922019019, 0.009655781922019019, 0.009655781922019019]",True,False,lighter,,0.5005093000363559,up,down,"(0, 0)","(0, 0)","(1, 1)","(0, 0)","(0, 0)","(0, 0)","(0, 1)","(1, 0)"
274,interactor,275,9.197601045418105,0.23444840232346276,0.0,45_top_u,True,3.574664600077085,,3.8418873000191525,True,"[0.23444840232346276, 0.23444840232346276, 0.23444840232346276]",False,True,lighter,,0.5000773000065237,down,left,"(1, 0)","(0, 0)","(0, 0)","(0, 1)","(0, 0)","(0, 0)","(0, 0)","(1, 1)"
275,interactor,276,9.99703646729109,0.2393387937244192,-0.335,135_bottom_d,True,3.5742704999865964,,3.8572713000467047,True,"[-0.0956612062755808, -0.0956612062755808, -0.0956612062755808]",False,True,darker,True,0.46857209992595017,up,left,"(0, 0)","(0, 0)","(1, 0)","(0, 1)","(0, 0)","(0, 0)","(0, 0)","(1, 1)"
276,interactor,277,9.403525867423939,0.30978107492430274,0.0,45_top_u,True,3.5750379000091925,,3.841117999982089,True,"[0.30978107492430274, 0.30978107492430274, 0.30978107492430274]",False,True,lighter,,0.46683259995188564,down,left,"(1, 0)","(0, 0)","(0, 0)","(0, 1)","(0, 0)","(0, 0)","(0, 0)","(1, 1)"
277,empty,278,9.579666804899995,0.1512150235543985,0.335,none_u,False,,,3.8586457999190316,True,"[0.4862150235543985, 0.4862150235543985, 0.4862150235543985]",True,True,lighter,True,0.4494672000873834,down,up,"(1, 1)","(0, 0)","(0, 0)","(0, 0)","(1, 1)","(0, 0)","(0, 0)","(0, 0)"
278,empty,279,9.665234031226069,0.08541883901001295,0.335,none_l,True,3.5728778999764472,right,3.8400853000348434,True,"[0.420418839010013, 0.420418839010013, 0.420418839010013]",False,False,lighter,True,0.7998396999901161,right,up,"(0, 1)","(0, 0)","(0, 0)","(1, 0)","(0, 1)","(0, 0)","(0, 0)","(1, 0)"
279,interactor,280,9.510937794859165,-0.3209049552652249,-0.168,135_top_l,True,3.5737405999097973,,3.840968900010921,True,"[-0.4889049552652249, -0.4889049552652249, -0.4889049552652249]",False,True,darker,True,0.5669228999176994,right,down,"(0, 0)","(0, 0)","(0, 1)","(1, 0)","(0, 0)","(0, 0)","(1, 1)","(0, 0)"
280,interactor,281,9.236683992278666,0.15035770585944178,0.335,45_top_u,False,,,3.858920000027865,True,"[0.4853577058594418, 0.4853577058594418, 0.4853577058594418]",True,False,lighter,True,0.7337262999499217,down,up,"(1, 1)","(0, 0)","(0, 0)","(0, 0)","(0, 1)","(0, 0)","(0, 0)","(1, 0)"
281,empty,282,9.727787872171564,0.3603764057074532,-0.335,none_r,True,3.5756840999238193,left,3.8416735000209883,True,"[0.025376405707453198, 0.025376405707453198, 0.025376405707453198]",False,False,darker,True,0.5851121998857707,left,up,"(0, 1)","(1, 0)","(0, 0)","(0, 0)","(0, 1)","(1, 0)","(0, 0)","(0, 0)"
282,interactor,283,9.01837331293859,0.14730213102185039,0.168,135_top_l,True,3.5727147000143304,,3.8408066000556573,True,"[0.3153021310218504, 0.3153021310218504, 0.3153021310218504]",False,True,lighter,True,0.38221129996236414,right,down,"(0, 0)","(0, 0)","(0, 1)","(1, 0)","(0, 0)","(0, 0)","(1, 1)","(0, 0)"
283,interactor,284,9.566640427252004,0.22885309376554694,0.335,135_top_l,True,3.575265899999067,,3.841489900019951,True,"[0.5638530937655469, 0.5638530937655469, 0.5638530937655469]",False,True,lighter,True,0.5175241000251845,right,down,"(0, 0)","(0, 0)","(0, 1)","(1, 0)","(0, 0)","(0, 0)","(1, 1)","(0, 0)"
284,interactor,285,8.930179515685754,0.33235471832059793,0.335,45_top_r,True,3.573859199997969,,3.8401349000632763,True,"[0.6673547183205979, 0.6673547183205979, 0.6673547183205979]",False,True,lighter,True,0.6348718999652192,left,down,"(0, 0)","(1, 0)","(0, 1)","(0, 0)","(0, 0)","(0, 0)","(1, 1)","(0, 0)"
285,empty,286,9.497967532296546,0.035974765138045664,0.0,none_r,False,,,3.8591449999948964,True,"[0.035974765138045664, 0.035974765138045664, 0.035974765138045664]",True,True,lighter,,0.5495869000442326,left,right,"(0, 0)","(1, 1)","(0, 0)","(0, 0)","(0, 0)","(1, 1)","(0, 0)","(0, 0)"
286,interactor,287,9.225703513029705,0.08822365551702518,0.335,135_top_u,True,3.575245499960147,,3.8412207000656053,True,"[0.42322365551702523, 0.42322365551702523, 0.42322365551702523]",False,True,lighter,True,0.5179112999467179,down,right,"(1, 0)","(0, 1)","(0, 0)","(0, 0)","(0, 0)","(1, 1)","(0, 0)","(0, 0)"
287,empty,288,9.05428888741059,0.39459671276363434,0.335,none_u,False,,,3.8580856000771746,True,"[0.7295967127636344, 0.7295967127636344, 0.7295967127636344]",True,True,lighter,True,0.4658132999902591,down,up,"(1, 1)","(0, 0)","(0, 0)","(0, 0)","(1, 1)","(0, 0)","(0, 0)","(0, 0)"
288,interactor,289,9.68875948509852,0.03480462829888965,0.0,135_bottom_r,True,3.575963699957356,,3.8410686999559402,True,"[0.03480462829888965, 0.03480462829888965, 0.03480462829888965]",False,True,lighter,,0.5674771999474615,left,up,"(0, 1)","(1, 0)","(0, 0)","(0, 0)","(1, 1)","(0, 0)","(0, 0)","(0, 0)"
289,interactor,290,9.451303173610128,0.05583474582753789,0.335,135_bottom_d,True,3.573295999900438,,3.841508699930273,True,"[0.3908347458275379, 0.3908347458275379, 0.3908347458275379]",False,True,lighter,True,0.5996569000417367,up,left,"(0, 0)","(0, 0)","(1, 0)","(0, 1)","(0, 0)","(0, 0)","(0, 0)","(1, 1)"
290,empty,291,9.719033740124972,0.24439741424340605,0.335,none_r,True,3.575303600053303,right,3.842144800000824,True,"[0.5793974142434061, 0.5793974142434061, 0.5793974142434061]",False,False,space,,,left,down,"(0, 0)","(1, 0)","(0, 1)","(0, 0)","(0, 0)","(1, 0)","(0, 1)","(0, 0)"
291,interactor,292,9.523595576139343,0.059594701079624654,0.168,45_bottom_d,False,,,3.8575541999889538,True,"[0.22759470107962465, 0.22759470107962465, 0.22759470107962465]",True,False,lighter,True,0.4846216000150889,up,down,"(0, 0)","(0, 0)","(1, 1)","(0, 0)","(0, 0)","(1, 0)","(0, 1)","(0, 0)"
292,interactor,293,9.154719101410837,0.15148008340794575,-0.335,45_top_r,True,3.573602900025435,,3.841532099992037,True,"[-0.18351991659205427, -0.18351991659205427, -0.18351991659205427]",False,True,darker,True,0.7663865000940859,left,down,"(0, 0)","(1, 0)","(0, 1)","(0, 0)","(0, 0)","(0, 0)","(1, 1)","(0, 0)"
293,interactor,294,9.138531140848048,0.043584738664795286,-0.335,45_top_r,True,3.574869400006719,,3.8422199999913573,True,"[-0.29141526133520473, -0.29141526133520473, -0.29141526133520473]",False,True,darker,True,0.5507757000159472,left,down,"(0, 0)","(1, 0)","(0, 1)","(0, 0)","(0, 0)","(0, 0)","(1, 1)","(0, 0)"
294,interactor,295,9.479475032566599,0.07223929974986511,-0.335,135_bottom_d,True,3.5749804999213666,,3.843217199901119,True,"[-0.2627607002501349, -0.2627607002501349, -0.2627607002501349]",False,True,darker,True,0.6669388000154868,up,left,"(0, 0)","(0, 0)","(1, 0)","(0, 1)","(0, 0)","(0, 0)","(0, 0)","(1, 1)"
295,empty,296,9.35785622502114,0.11570473941920957,0.168,none_l,False,,,3.858083799947053,True,"[0.2837047394192096, 0.2837047394192096, 0.2837047394192096]",True,True,lighter,True,0.3340707999886945,right,left,"(0, 0)","(0, 0)","(0, 0)","(1, 1)","(0, 0)","(0, 0)","(0, 0)","(1, 1)"
296,empty,297,9.550968831442729,-0.2635442862312687,0.168,none_r,True,3.5759598000440747,left,3.841649000067264,True,"[-0.09554428623126868, -0.09554428623126868, -0.09554428623126868]",False,False,darker,False,0.6012300999136642,left,up,"(0, 1)","(1, 0)","(0, 0)","(0, 0)","(0, 1)","(1, 0)","(0, 0)","(0, 0)"
297,empty,298,9.433843342881337,0.03577236701392568,0.168,none_r,True,3.57448079995811,right,3.839547000010498,True,"[0.2037723670139257, 0.2037723670139257, 0.2037723670139257]",False,False,lighter,True,0.46665859990753233,left,down,"(0, 0)","(1, 0)","(0, 1)","(0, 0)","(0, 0)","(1, 0)","(0, 1)","(0, 0)"
298,empty,299,8.888437151152289,0.08001484725877173,-0.168,none_l,True,3.574406799976714,right,3.84236080001574,True,"[-0.08798515274122828, -0.08798515274122828, -0.08798515274122828]",False,False,darker,True,0.5494855999713764,right,up,"(0, 1)","(0, 0)","(0, 0)","(1, 0)","(0, 1)","(0, 0)","(0, 0)","(1, 0)"
299,interactor,300,9.46637146587998,0.06855391618356778,0.0,135_bottom_r,False,,,3.8585858999285847,True,"[0.06855391618356778, 0.06855391618356778, 0.06855391618356778]",True,False,lighter,,0.40026120003312826,left,right,"(0, 0)","(1, 1)","(0, 0)","(0, 0)","(1, 0)","(0, 1)","(0, 0)","(0, 0)"
300,interactor,301,9.898385587883018,-0.1680878706181881,0.168,135_top_u,False,,,3.8569966999348253,True,"[-8.787061818810171e-05, -8.787061818810171e-05, -8.787061818810171e-05]",True,False,space,,,down,up,"(1, 1)","(0, 0)","(0, 0)","(0, 0)","(0, 1)","(1, 0)","(0, 0)","(0, 0)"
301,interactor,302,9.272362894490959,0.5194228137247917,-0.168,45_bottom_d,False,,,3.8582960999337956,True,"[0.35142281372479167, 0.35142281372479167, 0.35142281372479167]",True,False,lighter,False,0.39942160004284233,up,down,"(0, 0)","(0, 0)","(1, 1)","(0, 0)","(0, 0)","(1, 0)","(0, 1)","(0, 0)"
302,interactor,303,9.710685288603138,0.28016727904446026,-0.335,135_top_l,False,,,3.8587897999677807,True,"[-0.05483272095553976, -0.05483272095553976, -0.05483272095553976]",True,False,darker,True,0.5331676000496373,right,left,"(0, 0)","(0, 0)","(0, 0)","(1, 1)","(0, 0)","(0, 0)","(1, 0)","(0, 1)"
303,interactor,304,10.160886927776158,0.09604108794446736,0.335,135_top_u,False,,,3.8575899000279605,True,"[0.4310410879444674, 0.4310410879444674, 0.4310410879444674]",True,False,lighter,True,0.48345329996664077,down,up,"(1, 1)","(0, 0)","(0, 0)","(0, 0)","(0, 1)","(1, 0)","(0, 0)","(0, 0)"
304,interactor,305,9.296574391734273,0.24784447552173883,-0.335,45_bottom_l,False,,,3.8570613999618217,True,"[-0.08715552447826119, -0.08715552447826119, -0.08715552447826119]",True,False,darker,True,0.45190440001897514,right,left,"(0, 0)","(0, 0)","(0, 0)","(1, 1)","(1, 0)","(0, 0)","(0, 0)","(0, 1)"
305,interactor,306,9.417169237860954,0.007499873583912742,-0.168,135_bottom_d,False,,,3.8594375000102445,True,"[-0.16050012641608727, -0.16050012641608727, -0.16050012641608727]",True,False,darker,True,0.6000760999741033,up,down,"(0, 0)","(0, 0)","(1, 1)","(0, 0)","(0, 0)","(0, 0)","(0, 1)","(1, 0)"
306,empty,307,9.339244670436857,0.21789633668400957,0.0,none_u,False,,,3.857632100000046,True,"[0.21789633668400957, 0.21789633668400957, 0.21789633668400957]",True,True,lighter,,0.6177958999760449,down,up,"(1, 1)","(0, 0)","(0, 0)","(0, 0)","(1, 1)","(0, 0)","(0, 0)","(0, 0)"
307,interactor,308,9.77287012570259,0.044679922258077834,0.0,135_bottom_r,True,3.5735323999542743,,3.840716499951668,True,"[0.044679922258077834, 0.044679922258077834, 0.044679922258077834]",False,True,lighter,,0.5513319000601768,left,up,"(0, 1)","(1, 0)","(0, 0)","(0, 0)","(1, 1)","(0, 0)","(0, 0)","(0, 0)"
308,interactor,309,9.415042557028515,0.49046310436929097,-0.168,135_bottom_d,True,3.5741238000337034,,3.8415239000460133,True,"[0.32246310436929093, 0.32246310436929093, 0.32246310436929093]",False,True,lighter,False,0.4498715999070555,up,left,"(0, 0)","(0, 0)","(1, 0)","(0, 1)","(0, 0)","(0, 0)","(0, 0)","(1, 1)"
309,interactor,310,9.557427563177,0.20750122298556914,0.335,45_bottom_l,False,,,3.8568777999607846,True,"[0.5425012229855691, 0.5425012229855691, 0.5425012229855691]",True,False,lighter,True,0.5498483999399468,right,left,"(0, 0)","(0, 0)","(0, 0)","(1, 1)","(1, 0)","(0, 0)","(0, 0)","(0, 1)"
310,empty,311,9.339846199698115,0.19695389185973486,-0.168,none_u,False,,,3.8575545999919996,True,"[0.028953891859734848, 0.028953891859734848, 0.028953891859734848]",True,True,darker,True,0.416681700036861,down,up,"(1, 1)","(0, 0)","(0, 0)","(0, 0)","(1, 1)","(0, 0)","(0, 0)","(0, 0)"
311,interactor,312,9.220809764873227,0.06277917235437763,0.335,135_top_l,True,3.5758857000619173,,3.8412956000538543,True,"[0.39777917235437765, 0.39777917235437765, 0.39777917235437765]",False,True,lighter,True,0.5838926000287756,right,down,"(0, 0)","(0, 0)","(0, 1)","(1, 0)","(0, 0)","(0, 0)","(1, 1)","(0, 0)"
312,empty,313,9.348569434606357,0.09829898467622497,-0.168,none_d,True,3.5743964000139385,left,3.841550700017251,True,"[-0.06970101532377504, -0.06970101532377504, -0.06970101532377504]",False,False,lighter,False,0.7666459999745712,up,right,"(0, 0)","(0, 1)","(1, 0)","(0, 0)","(0, 0)","(0, 1)","(1, 0)","(0, 0)"
313,interactor,314,9.465612503151604,0.23675418243040555,0.335,45_top_u,False,,,3.8576080000493675,True,"[0.5717541824304055, 0.5717541824304055, 0.5717541824304055]",True,False,darker,False,0.5822511999867857,down,up,"(1, 1)","(0, 0)","(0, 0)","(0, 0)","(0, 1)","(0, 0)","(0, 0)","(1, 0)"
314,interactor,315,9.747623185468969,0.26196287755560005,0.335,135_bottom_d,False,,,3.8580796999158338,True,"[0.5969628775556001, 0.5969628775556001, 0.5969628775556001]",True,False,lighter,True,0.45016780006699264,up,down,"(0, 0)","(0, 0)","(1, 1)","(0, 0)","(0, 0)","(0, 0)","(0, 1)","(1, 0)"
315,interactor,316,9.335380900768746,0.36201027660424734,0.168,45_bottom_l,True,3.5758748000953346,,3.8422086000209674,True,"[0.5300102766042474, 0.5300102766042474, 0.5300102766042474]",False,True,lighter,True,1.0008134000236169,right,up,"(0, 1)","(0, 0)","(0, 0)","(1, 0)","(1, 1)","(0, 0)","(0, 0)","(0, 0)"
316,empty,317,9.157192694490723,0.22800220685902478,0.335,none_l,False,,,3.85679730004631,True,"[0.5630022068590248, 0.5630022068590248, 0.5630022068590248]",True,True,darker,False,0.8001048000296578,right,left,"(0, 0)","(0, 0)","(0, 0)","(1, 1)","(0, 0)","(0, 0)","(0, 0)","(1, 1)"
317,interactor,318,9.905098583462207,-0.01660237775155915,-0.168,45_bottom_l,False,,,3.8587989999214187,True,"[-0.18460237775155916, -0.18460237775155916, -0.18460237775155916]",True,False,darker,True,0.5503344000317156,right,left,"(0, 0)","(0, 0)","(0, 0)","(1, 1)","(1, 0)","(0, 0)","(0, 0)","(0, 1)"
318,interactor,319,9.772425153890143,0.33963401698185336,-0.168,45_bottom_d,True,3.5741495999973267,,3.8414673999650404,True,"[0.17163401698185335, 0.17163401698185335, 0.17163401698185335]",False,True,lighter,False,0.48382219998165965,up,right,"(0, 0)","(0, 1)","(1, 0)","(0, 0)","(0, 0)","(1, 1)","(0, 0)","(0, 0)"
319,empty,320,9.63691841517131,0.28597242510043885,-0.168,none_r,True,3.5748614999465644,right,3.8418837999925017,True,"[0.11797242510043884, 0.11797242510043884, 0.11797242510043884]",False,False,lighter,False,0.5339746000245214,left,down,"(0, 0)","(1, 0)","(0, 1)","(0, 0)","(0, 0)","(1, 0)","(0, 1)","(0, 0)"
320,interactor,321,9.292784823095108,0.365868675875994,0.0,45_bottom_d,True,3.574315099976957,,3.841603699955158,True,"[0.365868675875994, 0.365868675875994, 0.365868675875994]",False,True,lighter,,0.46663030004128814,up,right,"(0, 0)","(0, 1)","(1, 0)","(0, 0)","(0, 0)","(1, 1)","(0, 0)","(0, 0)"
321,empty,322,9.71868265848743,0.026861347088055834,-0.168,none_r,True,3.5742172999307513,left,3.8409694000147283,True,"[-0.14113865291194416, -0.14113865291194416, -0.14113865291194416]",False,False,darker,True,0.5010500999633223,left,up,"(0, 1)","(1, 0)","(0, 0)","(0, 0)","(0, 1)","(1, 0)","(0, 0)","(0, 0)"
322,empty,323,9.182118397328953,0.1085424965841186,0.168,none_u,True,3.575623400043696,right,3.840997299994342,True,"[0.2765424965841186, 0.2765424965841186, 0.2765424965841186]",False,False,lighter,True,0.48540770006366074,down,right,"(1, 0)","(0, 1)","(0, 0)","(0, 0)","(1, 0)","(0, 1)","(0, 0)","(0, 0)"
323,empty,324,9.354536415864093,0.3634381524634335,-0.335,none_l,True,3.5752089000307024,right,3.8412451000185683,True,"[0.028438152463433453, 0.028438152463433453, 0.028438152463433453]",False,False,darker,True,0.517353400005959,right,up,"(0, 1)","(0, 0)","(0, 0)","(1, 0)","(0, 1)","(0, 0)","(0, 0)","(1, 0)"
324,empty,325,9.554999696025407,0.23651158267778943,-0.335,none_r,True,3.5753223999636248,left,3.8416749999159947,True,"[-0.09848841732221059, -0.09848841732221059, -0.09848841732221059]",False,False,darker,True,0.5987359000137076,left,up,"(0, 1)","(1, 0)","(0, 0)","(0, 0)","(0, 1)","(1, 0)","(0, 0)","(0, 0)"
325,interactor,326,9.145679700682836,0.25103794521123696,0.168,45_bottom_d,True,3.5741110000526533,,3.8416359999682754,True,"[0.41903794521123694, 0.41903794521123694, 0.41903794521123694]",False,True,lighter,True,0.4171951999887824,up,right,"(0, 0)","(0, 1)","(1, 0)","(0, 0)","(0, 0)","(1, 1)","(0, 0)","(0, 0)"
326,interactor,327,9.423268229056394,-0.19344033442040234,-0.168,45_bottom_d,False,,,3.858968099928461,True,"[-0.36144033442040235, -0.36144033442040235, -0.36144033442040235]",True,False,darker,True,0.5005510000046343,up,down,"(0, 0)","(0, 0)","(1, 1)","(0, 0)","(0, 0)","(1, 0)","(0, 1)","(0, 0)"
327,empty,328,9.685370422565022,-0.0009164690581595358,0.168,none_l,True,3.5736388999503106,right,3.8415760999778286,True,"[0.16708353094184047, 0.16708353094184047, 0.16708353094184047]",False,False,darker,False,0.6167950000381097,right,up,"(0, 1)","(0, 0)","(0, 0)","(1, 0)","(0, 1)","(0, 0)","(0, 0)","(1, 0)"
328,empty,329,9.305630366817828,0.10250004700176815,-0.168,none_r,False,,,3.8575872000074014,True,"[-0.06549995299823186, -0.06549995299823186, -0.06549995299823186]",True,True,lighter,False,0.633136700023897,left,right,"(0, 0)","(1, 1)","(0, 0)","(0, 0)","(0, 0)","(1, 1)","(0, 0)","(0, 0)"
329,interactor,330,9.613628378151269,0.06543305333044368,0.335,135_bottom_r,False,,,3.859148500021547,True,"[0.4004330533304437, 0.4004330533304437, 0.4004330533304437]",True,False,lighter,True,0.43204510002397,left,right,"(0, 0)","(1, 1)","(0, 0)","(0, 0)","(1, 0)","(0, 1)","(0, 0)","(0, 0)"
330,interactor,331,9.545586282549959,0.04989243252091238,-0.335,45_top_u,True,3.57501389994286,,3.842155299964361,True,"[-0.2851075674790876, -0.2851075674790876, -0.2851075674790876]",False,True,darker,True,0.6178337000310421,down,left,"(1, 0)","(0, 0)","(0, 0)","(0, 1)","(0, 0)","(0, 0)","(0, 0)","(1, 1)"
331,interactor,332,9.772065040415395,0.13529272207482398,0.335,45_bottom_d,False,,,3.8569394000805914,True,"[0.470292722074824, 0.470292722074824, 0.470292722074824]",True,False,lighter,True,0.5182602999266237,up,down,"(0, 0)","(0, 0)","(1, 1)","(0, 0)","(0, 0)","(1, 0)","(0, 1)","(0, 0)"
332,interactor,333,9.487820130616306,0.47115181609974965,0.168,135_top_l,True,3.574951200047508,,3.841286100097932,True,"[0.6391518160997497, 0.6391518160997497, 0.6391518160997497]",False,True,lighter,True,0.6327189999865368,right,down,"(0, 0)","(0, 0)","(0, 1)","(1, 0)","(0, 0)","(0, 0)","(1, 1)","(0, 0)"
