trial_type,trial,ball_speed,ball_start_color,ball_color_change,interactor,bounce,bounce_moment,random_bounce_direction,target_onset,ball_change,target_color,abs_congruent,sim_congruent,response,accuracy,rt,start_pos,end_pos,abs_rfup,abs_rfright,abs_rfdown,abs_rfleft,sim_rfup,sim_rfright,sim_rfdown,sim_rfleft
interactor,1,9.79527589747133,-0.1754969385555911,0.335,45_top_u,True,3.611580199911259,,3.8800578999798745,True,"[0.15950306144440893, 0.15950306144440893, 0.15950306144440893]",False,True,lighter,True,0.8650442999787629,down,left,"(1, 0)","(0, 0)","(0, 0)","(0, 1)","(0, 0)","(0, 0)","(0, 0)","(1, 1)"
empty,2,9.621984050211873,-0.133920651187073,-0.335,none_r,True,3.5747962000314146,left,3.841565900016576,True,"[-0.46892065118707305, -0.46892065118707305, -0.46892065118707305]",False,False,darker,True,0.5845320000080392,left,up,"(0, 1)","(1, 0)","(0, 0)","(0, 0)","(0, 1)","(1, 0)","(0, 0)","(0, 0)"
empty,3,9.558639842731957,-0.15562524297793598,-0.335,none_l,False,,,3.8582724999869242,True,"[-0.49062524297793597, -0.49062524297793597, -0.49062524297793597]",True,True,darker,True,0.5329349000239745,right,left,"(0, 0)","(0, 0)","(0, 0)","(1, 1)","(0, 0)","(0, 0)","(0, 0)","(1, 1)"
interactor,4,9.846861123716746,0.14552848853614408,0.335,45_top_u,False,,,3.857026500045322,True,"[0.4805284885361441, 0.4805284885361441, 0.4805284885361441]",True,False,lighter,True,0.5506821000017226,down,up,"(1, 1)","(0, 0)","(0, 0)","(0, 0)","(0, 1)","(0, 0)","(0, 0)","(1, 0)"
empty,5,9.458245146962906,0.3045442673630184,0.0,none_d,True,3.5747559000737965,right,3.840876800008118,True,"[0.3045442673630184, 0.3045442673630184, 0.3045442673630184]",False,False,lighter,,0.5002847000723705,up,left,"(0, 0)","(0, 0)","(1, 0)","(0, 1)","(0, 0)","(0, 0)","(1, 0)","(0, 1)"
interactor,6,9.285677606066477,0.2168111593233208,0.168,135_bottom_r,True,3.573227299959399,,3.840467300033197,True,"[0.3848111593233208, 0.3848111593233208, 0.3848111593233208]",False,True,lighter,True,0.5827301999088377,left,up,"(0, 1)","(1, 0)","(0, 0)","(0, 0)","(1, 1)","(0, 0)","(0, 0)","(0, 0)"
interactor,7,9.698471420714068,0.4125464879023293,0.335,45_bottom_l,True,3.5740321000339463,,3.840426499955356,True,"[0.7475464879023292, 0.7475464879023292, 0.7475464879023292]",False,True,lighter,True,0.5493439000565559,right,up,"(0, 1)","(0, 0)","(0, 0)","(1, 0)","(1, 1)","(0, 0)","(0, 0)","(0, 0)"
empty,8,9.362881697486598,0.22563620051549113,0.168,none_d,True,3.573303500073962,right,3.8401444000191987,True,"[0.39363620051549114, 0.39363620051549114, 0.39363620051549114]",False,False,lighter,True,0.5664202000480145,up,left,"(0, 0)","(0, 0)","(1, 0)","(0, 1)","(0, 0)","(0, 0)","(1, 0)","(0, 1)"
empty,9,9.431421136010915,0.277545725106558,-0.168,none_r,False,,,3.8577107000164688,True,"[0.109545725106558, 0.109545725106558, 0.109545725106558]",True,True,lighter,False,0.5330240000039339,left,right,"(0, 0)","(1, 1)","(0, 0)","(0, 0)","(0, 0)","(1, 1)","(0, 0)","(0, 0)"
interactor,10,9.52735663103571,0.16390390365645727,-0.335,45_bottom_d,True,3.5728509000036865,,3.8413322999840602,True,"[-0.17109609634354275, -0.17109609634354275, -0.17109609634354275]",False,True,darker,True,0.6166552000213414,up,right,"(0, 0)","(0, 1)","(1, 0)","(0, 0)","(0, 0)","(1, 1)","(0, 0)","(0, 0)"
empty,11,9.226473123979025,0.09443748052965634,-0.168,none_l,True,3.5753665999509394,left,3.841229200013913,True,"[-0.07356251947034367, -0.07356251947034367, -0.07356251947034367]",False,False,darker,True,0.7682221999857575,right,down,"(0, 0)","(0, 0)","(0, 1)","(1, 0)","(0, 0)","(0, 0)","(0, 1)","(1, 0)"
empty,12,9.559477662918887,-0.16238992107128716,0.335,none_d,False,,,3.858372199931182,True,"[0.17261007892871286, 0.17261007892871286, 0.17261007892871286]",True,True,lighter,True,0.40138100006151944,up,down,"(0, 0)","(0, 0)","(1, 1)","(0, 0)","(0, 0)","(0, 0)","(1, 1)","(0, 0)"
interactor,13,9.505910551150267,-0.04004440464462111,0.335,45_top_r,True,3.574607799993828,,3.840686299954541,True,"[0.2949555953553789, 0.2949555953553789, 0.2949555953553789]",False,True,lighter,True,0.4341252000303939,left,down,"(0, 0)","(1, 0)","(0, 1)","(0, 0)","(0, 0)","(0, 0)","(1, 1)","(0, 0)"
empty,14,9.827504478117477,0.21624451278565893,0.168,none_l,False,,,3.8583119999384508,True,"[0.38424451278565896, 0.38424451278565896, 0.38424451278565896]",True,True,lighter,True,0.5326787000522017,right,left,"(0, 0)","(0, 0)","(0, 0)","(1, 1)","(0, 0)","(0, 0)","(0, 0)","(1, 1)"
interactor,15,9.60601522409637,-0.08156015210602269,-0.168,45_bottom_d,False,,,3.8573392999824136,True,"[-0.2495601521060227, -0.2495601521060227, -0.2495601521060227]",True,False,darker,True,0.8173301999922842,up,down,"(0, 0)","(0, 0)","(1, 1)","(0, 0)","(0, 0)","(1, 0)","(0, 1)","(0, 0)"
empty,16,9.811746447147064,0.6411642810369516,-0.335,none_d,False,,,3.857516400050372,True,"[0.30616428103695154, 0.30616428103695154, 0.30616428103695154]",True,True,lighter,False,0.5335274999961257,up,down,"(0, 0)","(0, 0)","(1, 1)","(0, 0)","(0, 0)","(0, 0)","(1, 1)","(0, 0)"
interactor,17,9.831967120251225,0.35525962851094894,0.0,135_bottom_d,False,,,3.8578473000088707,True,"[0.35525962851094894, 0.35525962851094894, 0.35525962851094894]",True,False,lighter,,0.8661706000566483,up,down,"(0, 0)","(0, 0)","(1, 1)","(0, 0)","(0, 0)","(0, 0)","(0, 1)","(1, 0)"
interactor,18,9.593343900668593,-0.021866565243524344,0.0,135_top_u,False,,,3.8582450000103563,True,"[-0.021866565243524344, -0.021866565243524344, -0.021866565243524344]",True,False,darker,,0.6995889999670908,down,up,"(1, 1)","(0, 0)","(0, 0)","(0, 0)","(0, 1)","(1, 0)","(0, 0)","(0, 0)"
interactor,19,9.534559983199777,0.21758598282335473,0.335,135_top_l,True,3.575094100087881,,3.841300400090404,True,"[0.5525859828233548, 0.5525859828233548, 0.5525859828233548]",False,True,lighter,True,0.5005873999325559,right,down,"(0, 0)","(0, 0)","(0, 1)","(1, 0)","(0, 0)","(0, 0)","(1, 1)","(0, 0)"
interactor,20,9.796794308889316,-0.1310454375925275,0.335,45_top_u,False,,,3.8580409000860527,True,"[0.20395456240747253, 0.20395456240747253, 0.20395456240747253]",True,False,lighter,True,0.45022219989914447,down,up,"(1, 1)","(0, 0)","(0, 0)","(0, 0)","(0, 1)","(0, 0)","(0, 0)","(1, 0)"
empty,21,9.307576114094708,0.2911346630786534,0.168,none_r,True,3.5750461999559775,left,3.8400312999729067,True,"[0.45913466307865336, 0.45913466307865336, 0.45913466307865336]",False,False,lighter,True,0.7015237000305206,left,up,"(0, 1)","(1, 0)","(0, 0)","(0, 0)","(0, 1)","(1, 0)","(0, 0)","(0, 0)"
interactor,22,9.686311030263811,0.17671160782998419,0.168,135_top_l,True,3.574281599954702,,3.841550500015728,True,"[0.3447116078299842, 0.3447116078299842, 0.3447116078299842]",False,True,lighter,True,0.5668029999360442,right,down,"(0, 0)","(0, 0)","(0, 1)","(1, 0)","(0, 0)","(0, 0)","(1, 1)","(0, 0)"
interactor,23,9.628187715114429,0.3361873531561751,-0.168,45_bottom_d,True,3.574112599948421,,3.8403907999163494,True,"[0.16818735315617508, 0.16818735315617508, 0.16818735315617508]",False,True,lighter,False,0.41768559999763966,up,right,"(0, 0)","(0, 1)","(1, 0)","(0, 0)","(0, 0)","(1, 1)","(0, 0)","(0, 0)"
interactor,24,9.840082458305655,0.08069131953688552,0.168,45_bottom_d,False,,,3.8563344000140205,True,"[0.24869131953688553, 0.24869131953688553, 0.24869131953688553]",True,False,lighter,True,0.4179748999886215,up,down,"(0, 0)","(0, 0)","(1, 1)","(0, 0)","(0, 0)","(1, 0)","(0, 1)","(0, 0)"
empty,25,9.561239392146579,0.08763722363182869,0.335,none_l,False,,,3.8583722999319434,True,"[0.4226372236318287, 0.4226372236318287, 0.4226372236318287]",True,True,lighter,True,0.4673865999793634,right,left,"(0, 0)","(0, 0)","(0, 0)","(1, 1)","(0, 0)","(0, 0)","(0, 0)","(1, 1)"
interactor,26,9.526664037606922,-0.08961389941848033,0.0,45_bottom_l,False,,,3.858574499958195,True,"[-0.08961389941848033, -0.08961389941848033, -0.08961389941848033]",True,False,darker,,0.5013676999369636,right,left,"(0, 0)","(0, 0)","(0, 0)","(1, 1)","(1, 0)","(0, 0)","(0, 0)","(0, 1)"
interactor,27,9.28006046767778,-0.0704982576366571,0.168,135_top_l,False,,,3.858401000034064,True,"[0.09750174236334291, 0.09750174236334291, 0.09750174236334291]",True,False,darker,False,0.7325820999685675,right,left,"(0, 0)","(0, 0)","(0, 0)","(1, 1)","(0, 0)","(0, 0)","(1, 0)","(0, 1)"
empty,28,9.482422484389135,0.09003768852406285,0.335,none_d,False,,,3.8574182000011206,True,"[0.4250376885240629, 0.4250376885240629, 0.4250376885240629]",True,True,lighter,True,0.45077520003542304,up,down,"(0, 0)","(0, 0)","(1, 1)","(0, 0)","(0, 0)","(0, 0)","(1, 1)","(0, 0)"
interactor,29,9.375822534397189,0.08921544382289198,0.168,45_bottom_d,True,3.5732943000039086,,3.8416324999416247,True,"[0.25721544382289196, 0.25721544382289196, 0.25721544382289196]",False,True,lighter,True,0.5321564000332728,up,right,"(0, 0)","(0, 1)","(1, 0)","(0, 0)","(0, 0)","(1, 1)","(0, 0)","(0, 0)"
interactor,30,9.290663016351257,0.15302266311011636,0.168,45_top_u,True,3.5745833000401035,,3.842762800049968,True,"[0.3210226631101164, 0.3210226631101164, 0.3210226631101164]",False,True,lighter,True,0.7836493999930099,down,left,"(1, 0)","(0, 0)","(0, 0)","(0, 1)","(0, 0)","(0, 0)","(0, 0)","(1, 1)"
empty,31,10.16230681288589,0.09120488640992788,0.168,none_d,True,3.5758144999854267,right,3.8581307999556884,True,"[0.2592048864099279, 0.2592048864099279, 0.2592048864099279]",False,False,lighter,True,0.5169400000013411,up,left,"(0, 0)","(0, 0)","(1, 0)","(0, 1)","(0, 0)","(0, 0)","(1, 0)","(0, 1)"
empty,32,9.595843778280708,0.3060797275779469,0.335,none_u,False,,,3.8590703000081703,True,"[0.641079727577947, 0.641079727577947, 0.641079727577947]",True,True,lighter,True,0.5328483000630513,down,up,"(1, 1)","(0, 0)","(0, 0)","(0, 0)","(1, 1)","(0, 0)","(0, 0)","(0, 0)"
interactor,33,9.346454887001961,0.10932407361968466,-0.168,135_bottom_r,False,,,3.857639000052586,True,"[-0.05867592638031535, -0.05867592638031535, -0.05867592638031535]",True,False,darker,True,0.7162947999313474,left,right,"(0, 0)","(1, 1)","(0, 0)","(0, 0)","(1, 0)","(0, 1)","(0, 0)","(0, 0)"
interactor,34,9.034551384676032,0.2502637409123737,0.168,135_bottom_r,False,,,3.857002599979751,True,"[0.4182637409123737, 0.4182637409123737, 0.4182637409123737]",True,False,lighter,True,0.7009131999220699,left,right,"(0, 0)","(1, 1)","(0, 0)","(0, 0)","(1, 0)","(0, 1)","(0, 0)","(0, 0)"
empty,35,9.87387729112564,0.23932714057998156,-0.168,none_d,True,3.5725696000736207,right,3.856224999995902,True,"[0.07132714057998155, 0.07132714057998155, 0.07132714057998155]",False,False,lighter,False,0.9018012000015005,up,left,"(0, 0)","(0, 0)","(1, 0)","(0, 1)","(0, 0)","(0, 0)","(1, 0)","(0, 1)"
empty,36,9.406503525517389,-0.06636581506992342,0.168,none_r,True,3.5752411999274045,left,3.8413915999699384,True,"[0.10163418493007659, 0.10163418493007659, 0.10163418493007659]",False,False,darker,False,0.7176079999189824,left,up,"(0, 1)","(1, 0)","(0, 0)","(0, 0)","(0, 1)","(1, 0)","(0, 0)","(0, 0)"
empty,37,9.544477582164847,-0.18117186024638357,-0.335,none_r,False,,,3.859329200000502,True,"[-0.5161718602463836, -0.5161718602463836, -0.5161718602463836]",True,True,darker,True,0.5834530999418348,left,right,"(0, 0)","(1, 1)","(0, 0)","(0, 0)","(0, 0)","(1, 1)","(0, 0)","(0, 0)"
empty,38,8.654661395243542,0.16699154628674687,-0.168,none_u,False,,,3.8586638000560924,True,"[-0.0010084537132531435, -0.0010084537132531435, -0.0010084537132531435]",True,True,darker,True,0.5832531999330968,down,up,"(1, 1)","(0, 0)","(0, 0)","(0, 0)","(1, 1)","(0, 0)","(0, 0)","(0, 0)"
empty,39,9.473961689818404,0.2906027530961762,-0.335,none_r,True,3.5750940999714658,right,3.8412143000168726,True,"[-0.044397246903823795, -0.044397246903823795, -0.044397246903823795]",False,False,lighter,False,0.7327774999430403,left,down,"(0, 0)","(1, 0)","(0, 1)","(0, 0)","(0, 0)","(1, 0)","(0, 1)","(0, 0)"
interactor,40,9.70787569192217,0.3138894400899729,0.335,45_top_r,True,3.573205600026995,,3.840548299951479,True,"[0.648889440089973, 0.648889440089973, 0.648889440089973]",False,True,lighter,True,0.568288000067696,left,down,"(0, 0)","(1, 0)","(0, 1)","(0, 0)","(0, 0)","(0, 0)","(1, 1)","(0, 0)"
interactor,41,9.65020721082221,0.17203478841783232,0.168,45_top_u,False,,,3.8583338001044467,True,"[0.3400347884178323, 0.3400347884178323, 0.3400347884178323]",True,False,lighter,True,0.53483719995711,down,up,"(1, 1)","(0, 0)","(0, 0)","(0, 0)","(0, 1)","(0, 0)","(0, 0)","(1, 0)"
interactor,42,9.468083769612788,0.13389739734820058,0.335,135_top_u,True,3.576572500052862,,3.8425833000801504,True,"[0.4688973973482006, 0.4688973973482006, 0.4688973973482006]",False,True,lighter,True,0.5338384999195114,down,right,"(1, 0)","(0, 1)","(0, 0)","(0, 0)","(0, 0)","(1, 1)","(0, 0)","(0, 0)"
empty,43,9.605380188476895,0.2519611448941026,-0.335,none_d,True,3.5765322000952438,right,3.841614600038156,True,"[-0.08303885510589742, -0.08303885510589742, -0.08303885510589742]",False,False,darker,True,0.6348551999544725,up,left,"(0, 0)","(0, 0)","(1, 0)","(0, 1)","(0, 0)","(0, 0)","(1, 0)","(0, 1)"
empty,44,9.742159834014439,0.43687936018576634,0.168,none_l,False,,,3.8582667000591755,True,"[0.6048793601857664, 0.6048793601857664, 0.6048793601857664]",True,True,lighter,True,0.4326728000305593,right,left,"(0, 0)","(0, 0)","(0, 0)","(1, 1)","(0, 0)","(0, 0)","(0, 0)","(1, 1)"
interactor,45,9.290512281164034,0.27139658054583043,0.0,135_top_u,True,3.5742925000377,,3.840693900012411,True,"[0.27139658054583043, 0.27139658054583043, 0.27139658054583043]",False,True,lighter,,0.4172179999295622,down,right,"(1, 0)","(0, 1)","(0, 0)","(0, 0)","(0, 0)","(1, 1)","(0, 0)","(0, 0)"
empty,46,9.011530458178166,-0.03361916859037156,-0.335,none_d,True,3.576083300053142,right,3.842141899978742,True,"[-0.3686191685903716, -0.3686191685903716, -0.3686191685903716]",False,False,darker,True,0.5657390999840572,up,left,"(0, 0)","(0, 0)","(1, 0)","(0, 1)","(0, 0)","(0, 0)","(1, 0)","(0, 1)"
interactor,47,9.408013193329104,0.33243989224045256,-0.168,135_top_u,True,3.573841299978085,,3.8410078999586403,True,"[0.16443989224045255, 0.16443989224045255, 0.16443989224045255]",False,True,lighter,False,0.9500502999871969,down,right,"(1, 0)","(0, 1)","(0, 0)","(0, 0)","(0, 0)","(1, 1)","(0, 0)","(0, 0)"
interactor,48,9.430529224529312,0.28703787343469694,-0.168,45_top_r,False,,,3.8595660999417305,True,"[0.11903787343469693, 0.11903787343469693, 0.11903787343469693]",True,False,lighter,False,0.5170135999796912,left,right,"(0, 0)","(1, 1)","(0, 0)","(0, 0)","(0, 0)","(0, 1)","(1, 0)","(0, 0)"
empty,49,9.570861637052182,0.09258202440964197,-0.335,none_r,True,3.5746041999664158,left,3.8400223000207916,True,"[-0.24241797559035805, -0.24241797559035805, -0.24241797559035805]",False,False,darker,True,0.6011688999133185,left,up,"(0, 1)","(1, 0)","(0, 0)","(0, 0)","(0, 1)","(1, 0)","(0, 0)","(0, 0)"
interactor,50,9.734493764455193,-0.028410184351758794,-0.335,135_bottom_r,False,,,3.858537800027989,True,"[-0.3634101843517588, -0.3634101843517588, -0.3634101843517588]",True,False,darker,True,0.534160100040026,left,right,"(0, 0)","(1, 1)","(0, 0)","(0, 0)","(1, 0)","(0, 1)","(0, 0)","(0, 0)"
interactor,51,9.647261765190812,-0.03844083699860709,0.168,45_top_r,True,3.575040000025183,,3.841309499926865,True,"[0.12955916300139292, 0.12955916300139292, 0.12955916300139292]",False,True,lighter,True,0.5170161999994889,left,down,"(0, 0)","(1, 0)","(0, 1)","(0, 0)","(0, 0)","(0, 0)","(1, 1)","(0, 0)"
interactor,52,9.461498117764117,0.0886792870507205,0.335,135_top_u,False,,,3.8581229000119492,True,"[0.42367928705072055, 0.42367928705072055, 0.42367928705072055]",True,False,lighter,True,0.48524880001787096,down,up,"(1, 1)","(0, 0)","(0, 0)","(0, 0)","(0, 1)","(1, 0)","(0, 0)","(0, 0)"
empty,53,9.260156204765282,0.06658709753975094,-0.168,none_d,False,,,3.8567514000460505,True,"[-0.10141290246024907, -0.10141290246024907, -0.10141290246024907]",True,True,lighter,False,0.5834340000292286,up,down,"(0, 0)","(0, 0)","(1, 1)","(0, 0)","(0, 0)","(0, 0)","(1, 1)","(0, 0)"
interactor,54,9.546770917768118,0.6918467111581718,-0.168,135_bottom_r,True,3.5750360999954864,,3.840098400018178,True,"[0.5238467111581717, 0.5238467111581717, 0.5238467111581717]",False,True,darker,True,0.6188508999766782,left,up,"(0, 1)","(1, 0)","(0, 0)","(0, 0)","(1, 1)","(0, 0)","(0, 0)","(0, 0)"
interactor,55,9.897923310038383,-0.004137535567155987,0.168,135_top_l,False,,,3.857772299903445,True,"[0.16386246443284402, 0.16386246443284402, 0.16386246443284402]",True,False,lighter,True,0.4999361000955105,right,left,"(0, 0)","(0, 0)","(0, 0)","(1, 1)","(0, 0)","(0, 0)","(1, 0)","(0, 1)"
empty,56,9.414079824005386,0.23179653250639842,0.335,none_d,True,3.574674400035292,right,3.841811600024812,True,"[0.5667965325063984, 0.5667965325063984, 0.5667965325063984]",False,False,lighter,True,0.48416390002239496,up,left,"(0, 0)","(0, 0)","(1, 0)","(0, 1)","(0, 0)","(0, 0)","(1, 0)","(0, 1)"
interactor,57,9.072146366580226,0.07510663434039021,-0.335,45_bottom_l,False,,,3.8583123999414966,True,"[-0.2598933656596098, -0.2598933656596098, -0.2598933656596098]",True,False,darker,True,0.5325700000394136,right,left,"(0, 0)","(0, 0)","(0, 0)","(1, 1)","(1, 0)","(0, 0)","(0, 0)","(0, 1)"
interactor,58,9.374572442810544,0.1885234617616599,-0.335,45_bottom_l,True,3.5744909000350162,,3.8417744000907987,True,"[-0.14647653823834011, -0.14647653823834011, -0.14647653823834011]",False,True,darker,True,0.5828993999166414,right,up,"(0, 1)","(0, 0)","(0, 0)","(1, 0)","(1, 1)","(0, 0)","(0, 0)","(0, 0)"
interactor,59,9.567241247318268,0.4973516688907199,0.168,135_bottom_r,False,,,3.858519100002013,True,"[0.66535166889072, 0.66535166889072, 0.66535166889072]",True,False,lighter,True,0.5174211000557989,left,right,"(0, 0)","(1, 1)","(0, 0)","(0, 0)","(1, 0)","(0, 1)","(0, 0)","(0, 0)"
empty,60,9.381174263851408,0.2666512594440943,-0.168,none_u,True,3.57476480002515,right,3.8405565000139177,True,"[0.09865125944409428, 0.09865125944409428, 0.09865125944409428]",False,False,lighter,False,0.5346626000246033,down,right,"(1, 0)","(0, 1)","(0, 0)","(0, 0)","(1, 0)","(0, 1)","(0, 0)","(0, 0)"
empty,61,9.365250091254893,-0.06283848141934611,-0.168,none_l,False,,,3.858090900001116,True,"[-0.23083848141934613, -0.23083848141934613, -0.23083848141934613]",True,True,darker,True,0.6671777999727055,right,left,"(0, 0)","(0, 0)","(0, 0)","(1, 1)","(0, 0)","(0, 0)","(0, 0)","(1, 1)"
empty,62,9.926404284810872,0.16291745337420788,0.335,none_u,True,3.573236000025645,right,3.8572188999969512,True,"[0.4979174533742079, 0.4979174533742079, 0.4979174533742079]",False,False,lighter,True,0.48387420002836734,down,right,"(1, 0)","(0, 1)","(0, 0)","(0, 0)","(1, 0)","(0, 1)","(0, 0)","(0, 0)"
empty,63,9.66482644135749,-0.035562354510496025,-0.335,none_r,True,3.573186399997212,left,3.8412487999303266,True,"[-0.370562354510496, -0.370562354510496, -0.370562354510496]",False,False,lighter,False,0.4998121000826359,left,up,"(0, 1)","(1, 0)","(0, 0)","(0, 0)","(0, 1)","(1, 0)","(0, 0)","(0, 0)"
empty,64,9.487384946819716,0.23878799267196832,0.168,none_d,False,,,3.858241999987513,True,"[0.4067879926719683, 0.4067879926719683, 0.4067879926719683]",True,True,lighter,True,0.5159462000010535,up,down,"(0, 0)","(0, 0)","(1, 1)","(0, 0)","(0, 0)","(0, 0)","(1, 1)","(0, 0)"
empty,65,9.92222712078557,0.5014621091879494,0.0,none_u,True,3.574113699956797,right,3.8580979999387637,True,"[0.5014621091879494, 0.5014621091879494, 0.5014621091879494]",False,False,lighter,,0.682715000002645,down,right,"(1, 0)","(0, 1)","(0, 0)","(0, 0)","(1, 0)","(0, 1)","(0, 0)","(0, 0)"
empty,66,9.178472314099158,0.19481701285375605,0.168,none_r,True,3.575134899932891,left,3.8401262999977916,True,"[0.36281701285375606, 0.36281701285375606, 0.36281701285375606]",False,False,lighter,True,0.60176979994867,left,up,"(0, 1)","(1, 0)","(0, 0)","(0, 0)","(0, 1)","(1, 0)","(0, 0)","(0, 0)"
empty,67,9.976902539630414,0.15658874510887008,-0.335,none_l,True,3.576294199912809,right,3.8592250999063253,True,"[-0.17841125489112994, -0.17841125489112994, -0.17841125489112994]",False,False,darker,True,0.632874200004153,right,up,"(0, 1)","(0, 0)","(0, 0)","(1, 0)","(0, 1)","(0, 0)","(0, 0)","(1, 0)"
interactor,68,9.694510126168822,0.4522233931906361,-0.335,135_bottom_r,True,3.5751959999324754,,3.8413571999408305,True,"[0.11722339319063607, 0.11722339319063607, 0.11722339319063607]",False,True,lighter,False,1.0840469000395387,left,up,"(0, 1)","(1, 0)","(0, 0)","(0, 0)","(1, 1)","(0, 0)","(0, 0)","(0, 0)"
interactor,69,9.693172156208052,0.17444969430290694,0.0,135_top_l,False,,,3.8584921000292525,True,"[0.17444969430290694, 0.17444969430290694, 0.17444969430290694]",True,False,lighter,,0.4650739000644535,right,left,"(0, 0)","(0, 0)","(0, 0)","(1, 1)","(0, 0)","(0, 0)","(1, 0)","(0, 1)"
interactor,70,9.515130064320749,0.23357023606661093,0.335,135_bottom_r,True,3.5746320000616834,,3.8417840000474826,True,"[0.568570236066611, 0.568570236066611, 0.568570236066611]",False,True,lighter,True,0.5657498999498785,left,up,"(0, 1)","(1, 0)","(0, 0)","(0, 0)","(1, 1)","(0, 0)","(0, 0)","(0, 0)"
empty,71,9.551913947687202,0.3495619464936156,0.0,none_l,True,3.576368600013666,left,3.8415206000208855,True,"[0.3495619464936156, 0.3495619464936156, 0.3495619464936156]",False,False,lighter,,0.46721290005370975,right,down,"(0, 0)","(0, 0)","(0, 1)","(1, 0)","(0, 0)","(0, 0)","(0, 1)","(1, 0)"
empty,72,9.595222297237912,0.23928183792873914,0.0,none_u,True,3.5740368000697345,right,3.840147800045088,True,"[0.23928183792873914, 0.23928183792873914, 0.23928183792873914]",False,False,lighter,,0.452043000026606,down,right,"(1, 0)","(0, 1)","(0, 0)","(0, 0)","(1, 0)","(0, 1)","(0, 0)","(0, 0)"
interactor,73,9.669545321209954,0.3939558131397191,0.0,45_top_u,True,3.576161599950865,,3.84254979994148,True,"[0.3939558131397191, 0.3939558131397191, 0.3939558131397191]",False,True,lighter,,0.5999389999778941,down,left,"(1, 0)","(0, 0)","(0, 0)","(0, 1)","(0, 0)","(0, 0)","(0, 0)","(1, 1)"
empty,74,9.9604109019241,0.19384994596504146,0.0,none_l,False,,,3.857894399901852,True,"[0.19384994596504146, 0.19384994596504146, 0.19384994596504146]",True,True,darker,,0.6011415000539273,right,left,"(0, 0)","(0, 0)","(0, 0)","(1, 1)","(0, 0)","(0, 0)","(0, 0)","(1, 1)"
interactor,75,9.70095451636794,-0.11426567510118898,-0.335,45_top_r,True,3.57350930001121,,3.8395064000505954,True,"[-0.449265675101189, -0.449265675101189, -0.449265675101189]",False,True,darker,True,0.5515360999852419,left,down,"(0, 0)","(1, 0)","(0, 1)","(0, 0)","(0, 0)","(0, 0)","(1, 1)","(0, 0)"
interactor,76,9.160749121117377,0.12110487215877108,-0.168,135_bottom_r,True,3.575308399973437,,3.841576399980113,True,"[-0.04689512784122893, -0.04689512784122893, -0.04689512784122893]",False,True,darker,True,0.6331929999869317,left,up,"(0, 1)","(1, 0)","(0, 0)","(0, 0)","(1, 1)","(0, 0)","(0, 0)","(0, 0)"
empty,77,9.45358086137085,0.08168643161774017,0.0,none_d,False,,,3.8568609000649303,True,"[0.08168643161774017, 0.08168643161774017, 0.08168643161774017]",True,True,lighter,,0.3516334999585524,up,down,"(0, 0)","(0, 0)","(1, 1)","(0, 0)","(0, 0)","(0, 0)","(1, 1)","(0, 0)"
empty,78,9.334335637461498,0.20412908125806592,-0.335,none_r,False,,,3.8574090000474826,True,"[-0.1308709187419341, -0.1308709187419341, -0.1308709187419341]",True,True,lighter,False,0.40158900001551956,left,right,"(0, 0)","(1, 1)","(0, 0)","(0, 0)","(0, 0)","(1, 1)","(0, 0)","(0, 0)"
interactor,79,9.685395681829174,0.1435480439020449,0.168,135_top_l,False,,,3.856900200014934,True,"[0.31154804390204494, 0.31154804390204494, 0.31154804390204494]",True,False,lighter,True,0.7341141999932006,right,left,"(0, 0)","(0, 0)","(0, 0)","(1, 1)","(0, 0)","(0, 0)","(1, 0)","(0, 1)"
empty,80,9.36929393505104,0.20193227282351361,-0.335,none_d,True,3.5754665000131354,left,3.840490600094199,True,"[-0.1330677271764864, -0.1330677271764864, -0.1330677271764864]",False,False,darker,True,0.6835548999952152,up,right,"(0, 0)","(0, 1)","(1, 0)","(0, 0)","(0, 0)","(0, 1)","(1, 0)","(0, 0)"
empty,81,9.403034887482463,-0.027531524115198408,-0.335,none_u,True,3.574990799999796,right,3.841071999981068,True,"[-0.3625315241151984, -0.3625315241151984, -0.3625315241151984]",False,False,darker,True,0.5332240000134334,down,right,"(1, 0)","(0, 1)","(0, 0)","(0, 0)","(1, 0)","(0, 1)","(0, 0)","(0, 0)"
interactor,82,9.292576064535796,0.35267569328965437,-0.168,45_bottom_l,False,,,3.857124499976635,True,"[0.18467569328965436, 0.18467569328965436, 0.18467569328965436]",True,False,lighter,False,0.5009038000134751,right,left,"(0, 0)","(0, 0)","(0, 0)","(1, 1)","(1, 0)","(0, 0)","(0, 0)","(0, 1)"
interactor,83,9.319153207921959,0.05931040495954412,-0.168,135_top_u,False,,,3.8567399999592453,True,"[-0.10868959504045589, -0.10868959504045589, -0.10868959504045589]",True,False,darker,True,0.5673873999621719,down,up,"(1, 1)","(0, 0)","(0, 0)","(0, 0)","(0, 1)","(1, 0)","(0, 0)","(0, 0)"
interactor,84,9.182522662416027,0.27549195759133205,-0.168,45_top_r,True,3.575041800038889,,3.841235400061123,True,"[0.10749195759133204, 0.10749195759133204, 0.10749195759133204]",False,True,lighter,False,0.49962139991112053,left,down,"(0, 0)","(1, 0)","(0, 1)","(0, 0)","(0, 0)","(0, 0)","(1, 1)","(0, 0)"
interactor,85,9.454314710841249,0.3905110018765339,-0.168,135_bottom_d,True,3.5743973000207916,,3.841816500062123,True,"[0.22251100187653391, 0.22251100187653391, 0.22251100187653391]",False,True,lighter,False,0.5172321000136435,up,left,"(0, 0)","(0, 0)","(1, 0)","(0, 1)","(0, 0)","(0, 0)","(0, 0)","(1, 1)"
interactor,86,9.52277931181376,0.12048287520063639,-0.335,135_bottom_d,True,3.573592900065705,,3.8408813000423834,True,"[-0.21451712479936363, -0.21451712479936363, -0.21451712479936363]",False,True,darker,True,0.5677782000275329,up,left,"(0, 0)","(0, 0)","(1, 0)","(0, 1)","(0, 0)","(0, 0)","(0, 0)","(1, 1)"
interactor,87,9.886736048499204,0.26761974339183114,-0.168,135_bottom_r,False,,,3.8594158000778407,True,"[0.09961974339183113, 0.09961974339183113, 0.09961974339183113]",True,False,lighter,False,0.6334355999715626,left,right,"(0, 0)","(1, 1)","(0, 0)","(0, 0)","(1, 0)","(0, 1)","(0, 0)","(0, 0)"
interactor,88,9.382532749049552,0.10886492739082226,-0.168,45_top_u,False,,,3.857774700038135,True,"[-0.05913507260917775, -0.05913507260917775, -0.05913507260917775]",True,False,lighter,False,0.417115299962461,down,up,"(1, 1)","(0, 0)","(0, 0)","(0, 0)","(0, 1)","(0, 0)","(0, 0)","(1, 0)"
interactor,89,9.319424492587554,0.4756789308448607,-0.168,135_top_l,False,,,3.8565756999887526,True,"[0.30767893084486064, 0.30767893084486064, 0.30767893084486064]",True,False,lighter,False,0.46842649998143315,right,left,"(0, 0)","(0, 0)","(0, 0)","(1, 1)","(0, 0)","(0, 0)","(1, 0)","(0, 1)"
interactor,90,9.178598093209688,0.18176392075472245,-0.335,135_bottom_r,False,,,3.8590338999638334,True,"[-0.15323607924527757, -0.15323607924527757, -0.15323607924527757]",True,False,lighter,False,0.4507414000108838,left,right,"(0, 0)","(1, 1)","(0, 0)","(0, 0)","(1, 0)","(0, 1)","(0, 0)","(0, 0)"
interactor,91,9.78487423255416,0.35889845877003973,-0.335,45_top_r,False,,,3.859598300070502,True,"[0.02389845877003971, 0.02389845877003971, 0.02389845877003971]",True,False,lighter,False,0.8825263000326231,left,right,"(0, 0)","(1, 1)","(0, 0)","(0, 0)","(0, 0)","(0, 1)","(1, 0)","(0, 0)"
interactor,92,9.500825389609204,0.27027079691769657,-0.335,135_top_l,True,3.5737803999800235,,3.8408866999670863,True,"[-0.06472920308230345, -0.06472920308230345, -0.06472920308230345]",False,True,darker,True,0.6992313000373542,right,down,"(0, 0)","(0, 0)","(0, 1)","(1, 0)","(0, 0)","(0, 0)","(1, 1)","(0, 0)"
interactor,93,9.808108038931676,0.32703756078646196,0.335,135_bottom_d,True,3.574246500036679,,3.8562915000366047,True,"[0.6620375607864619, 0.6620375607864619, 0.6620375607864619]",False,True,lighter,True,0.46819980000145733,up,left,"(0, 0)","(0, 0)","(1, 0)","(0, 1)","(0, 0)","(0, 0)","(0, 0)","(1, 1)"
interactor,94,10.316328581416773,0.13040627027164028,0.335,45_bottom_l,False,,,3.8583917000796646,True,"[0.4654062702716403, 0.4654062702716403, 0.4654062702716403]",True,False,lighter,True,0.46688909991644323,right,left,"(0, 0)","(0, 0)","(0, 0)","(1, 1)","(1, 0)","(0, 0)","(0, 0)","(0, 1)"
empty,95,9.022005126659764,0.2784748263699237,0.168,none_d,False,,,3.858780900016427,True,"[0.44647482636992375, 0.44647482636992375, 0.44647482636992375]",True,True,lighter,True,0.41639620007481426,up,down,"(0, 0)","(0, 0)","(1, 1)","(0, 0)","(0, 0)","(0, 0)","(1, 1)","(0, 0)"
empty,96,9.054473728519406,0.3716519001340493,0.0,none_u,False,,,3.85795989993494,True,"[0.3716519001340493, 0.3716519001340493, 0.3716519001340493]",True,True,lighter,,0.41629249998368323,down,up,"(1, 1)","(0, 0)","(0, 0)","(0, 0)","(1, 1)","(0, 0)","(0, 0)","(0, 0)"
interactor,97,9.392319794391984,-0.05457577059567753,-0.168,45_bottom_d,True,3.5750776000786573,,3.8424537000246346,True,"[-0.22257577059567754, -0.22257577059567754, -0.22257577059567754]",False,True,lighter,False,0.4494908000342548,up,right,"(0, 0)","(0, 1)","(1, 0)","(0, 0)","(0, 0)","(1, 1)","(0, 0)","(0, 0)"
interactor,98,9.751307466226802,0.15723614770150482,0.0,45_top_r,True,3.5736762998858467,,3.8406907999888062,True,"[0.15723614770150482, 0.15723614770150482, 0.15723614770150482]",False,True,lighter,,0.5186078000115231,left,down,"(0, 0)","(1, 0)","(0, 1)","(0, 0)","(0, 0)","(0, 0)","(1, 1)","(0, 0)"
empty,99,9.442565871139706,0.1189150236856842,0.335,none_l,True,3.575073100044392,right,3.841025400091894,True,"[0.4539150236856842, 0.4539150236856842, 0.4539150236856842]",False,False,lighter,True,0.5001606999430805,right,up,"(0, 1)","(0, 0)","(0, 0)","(1, 0)","(0, 1)","(0, 0)","(0, 0)","(1, 0)"
interactor,100,9.483391964094814,0.09833449846063598,0.0,135_bottom_r,False,,,3.8580044000409544,True,"[0.09833449846063598, 0.09833449846063598, 0.09833449846063598]",True,False,lighter,,0.8165145999519154,left,right,"(0, 0)","(1, 1)","(0, 0)","(0, 0)","(1, 0)","(0, 1)","(0, 0)","(0, 0)"
empty,101,9.735362759257686,0.07316027165117639,0.168,none_u,False,,,3.8584210000699386,True,"[0.2411602716511764, 0.2411602716511764, 0.2411602716511764]",True,True,lighter,True,0.4336602999828756,down,up,"(1, 1)","(0, 0)","(0, 0)","(0, 0)","(1, 1)","(0, 0)","(0, 0)","(0, 0)"
empty,102,9.03602917904482,-0.008161413934063416,0.335,none_l,False,,,3.857829499989748,True,"[0.32683858606593663, 0.32683858606593663, 0.32683858606593663]",True,True,lighter,True,0.5344253000803292,right,left,"(0, 0)","(0, 0)","(0, 0)","(1, 1)","(0, 0)","(0, 0)","(0, 0)","(1, 1)"
empty,103,8.855944531802445,0.06137805634442525,-0.335,none_u,True,3.57400989998132,right,3.840263699996285,True,"[-0.2736219436555748, -0.2736219436555748, -0.2736219436555748]",False,False,darker,True,0.5505878999829292,down,right,"(1, 0)","(0, 1)","(0, 0)","(0, 0)","(1, 0)","(0, 1)","(0, 0)","(0, 0)"
interactor,104,9.74529898505764,0.01705384875201657,0.335,135_top_u,False,,,3.857935499981977,True,"[0.3520538487520166, 0.3520538487520166, 0.3520538487520166]",True,False,lighter,True,0.48335999995470047,down,up,"(1, 1)","(0, 0)","(0, 0)","(0, 0)","(0, 1)","(1, 0)","(0, 0)","(0, 0)"
empty,105,9.503510031765646,-0.19794496285795524,-0.335,none_d,False,,,3.8571987999603152,True,"[-0.5329449628579552, -0.5329449628579552, -0.5329449628579552]",True,True,darker,True,0.4516416999977082,up,down,"(0, 0)","(0, 0)","(1, 1)","(0, 0)","(0, 0)","(0, 0)","(1, 1)","(0, 0)"
empty,106,9.107801546358207,-0.17243753690730754,0.335,none_r,True,3.5762886999873444,right,3.8424537999089807,True,"[0.16256246309269248, 0.16256246309269248, 0.16256246309269248]",False,False,lighter,True,0.4333828000817448,left,down,"(0, 0)","(1, 0)","(0, 1)","(0, 0)","(0, 0)","(1, 0)","(0, 1)","(0, 0)"
empty,107,9.3343585530617,0.05958929598802461,0.168,none_r,True,3.574189600069076,right,3.8410347000462934,True,"[0.22758929598802463, 0.22758929598802463, 0.22758929598802463]",False,False,lighter,True,0.48486620001494884,left,down,"(0, 0)","(1, 0)","(0, 1)","(0, 0)","(0, 0)","(1, 0)","(0, 1)","(0, 0)"
interactor,108,9.95890863244648,-0.1297681546888347,-0.335,135_bottom_d,False,,,3.858340200036764,True,"[-0.4647681546888347, -0.4647681546888347, -0.4647681546888347]",True,False,darker,True,0.533595799934119,up,down,"(0, 0)","(0, 0)","(1, 1)","(0, 0)","(0, 0)","(0, 0)","(0, 1)","(1, 0)"
interactor,109,9.633166964217697,0.35664645779899407,-0.168,135_bottom_d,False,,,3.8570804999908432,True,"[0.18864645779899405, 0.18864645779899405, 0.18864645779899405]",True,False,lighter,False,0.41636469995137304,up,down,"(0, 0)","(0, 0)","(1, 1)","(0, 0)","(0, 0)","(0, 0)","(0, 1)","(1, 0)"
interactor,110,9.602364627791575,0.1337823392489743,-0.168,45_bottom_l,True,3.5744976999703795,,3.841664299950935,True,"[-0.0342176607510257, -0.0342176607510257, -0.0342176607510257]",False,True,lighter,False,0.48459280002862215,right,up,"(0, 1)","(0, 0)","(0, 0)","(1, 0)","(1, 1)","(0, 0)","(0, 0)","(0, 0)"
empty,111,9.281943398804954,0.051245567276080095,0.0,none_d,True,3.5746247000060976,right,3.84253870008979,True,"[0.051245567276080095, 0.051245567276080095, 0.051245567276080095]",False,False,lighter,,0.48213059990666807,up,left,"(0, 0)","(0, 0)","(1, 0)","(0, 1)","(0, 0)","(0, 0)","(1, 0)","(0, 1)"
interactor,112,9.548429534705726,-0.021354483163148086,0.168,135_top_u,True,3.574866299983114,,3.84132710006088,True,"[0.14664551683685192, 0.14664551683685192, 0.14664551683685192]",False,True,lighter,True,0.5829149999190122,down,right,"(1, 0)","(0, 1)","(0, 0)","(0, 0)","(0, 0)","(1, 1)","(0, 0)","(0, 0)"
interactor,113,9.708789288966466,0.37013167422539434,0.168,45_bottom_d,False,,,3.8566693000029773,True,"[0.5381316742253943, 0.5381316742253943, 0.5381316742253943]",True,False,lighter,True,0.5166600000811741,up,down,"(0, 0)","(0, 0)","(1, 1)","(0, 0)","(0, 0)","(1, 0)","(0, 1)","(0, 0)"
interactor,114,9.563457768294997,0.1556382837354568,-0.168,45_top_u,False,,,3.858829600038007,True,"[-0.012361716264543215, -0.012361716264543215, -0.012361716264543215]",True,False,darker,True,0.46611079992726445,down,up,"(1, 1)","(0, 0)","(0, 0)","(0, 0)","(0, 1)","(0, 0)","(0, 0)","(1, 0)"
empty,115,9.270774326369594,-0.30057273001487117,0.0,none_l,False,,,3.8576849999371916,True,"[-0.30057273001487117, -0.30057273001487117, -0.30057273001487117]",True,True,darker,,0.5825325000332668,right,left,"(0, 0)","(0, 0)","(0, 0)","(1, 1)","(0, 0)","(0, 0)","(0, 0)","(1, 1)"
interactor,116,9.439122277400813,0.012417777684415099,0.335,45_bottom_d,True,3.573640299960971,,3.840821399935521,True,"[0.3474177776844151, 0.3474177776844151, 0.3474177776844151]",False,True,lighter,True,0.46816729998681694,up,right,"(0, 0)","(0, 1)","(1, 0)","(0, 0)","(0, 0)","(1, 1)","(0, 0)","(0, 0)"
empty,117,10.101627634915808,0.29961072236936614,-0.335,none_u,True,3.575760099920444,right,3.8589280999731272,True,"[-0.035389277630633875, -0.035389277630633875, -0.035389277630633875]",False,False,lighter,False,0.532286399975419,down,right,"(1, 0)","(0, 1)","(0, 0)","(0, 0)","(1, 0)","(0, 1)","(0, 0)","(0, 0)"
empty,118,9.941495056088948,0.231953819216305,0.0,none_d,True,3.5747474998934194,left,3.857726499903947,True,"[0.231953819216305, 0.231953819216305, 0.231953819216305]",False,False,lighter,,0.4334149000933394,up,right,"(0, 0)","(0, 1)","(1, 0)","(0, 0)","(0, 0)","(0, 1)","(1, 0)","(0, 0)"
interactor,119,9.456094935855429,0.2331130107179214,0.335,135_bottom_d,True,3.5750298000639305,,3.842269300017506,True,"[0.5681130107179214, 0.5681130107179214, 0.5681130107179214]",False,True,lighter,True,0.515884599997662,up,left,"(0, 0)","(0, 0)","(1, 0)","(0, 1)","(0, 0)","(0, 0)","(0, 0)","(1, 1)"
interactor,120,9.21278479030151,0.23695844149459977,0.0,135_top_l,True,3.5762187000364065,,3.842579000047408,True,"[0.23695844149459977, 0.23695844149459977, 0.23695844149459977]",False,True,lighter,,0.49933439993765205,right,down,"(0, 0)","(0, 0)","(0, 1)","(1, 0)","(0, 0)","(0, 0)","(1, 1)","(0, 0)"
empty,121,9.386139879874351,0.021033132192712384,-0.335,none_r,False,,,3.8599186999490485,True,"[-0.31396686780728766, -0.31396686780728766, -0.31396686780728766]",True,True,darker,True,0.5994472000747919,left,right,"(0, 0)","(1, 1)","(0, 0)","(0, 0)","(0, 0)","(1, 1)","(0, 0)","(0, 0)"
empty,122,9.39452781239035,0.15959236446097866,-0.168,none_u,True,3.5746739000314847,right,3.8417451001005247,True,"[-0.008407635539021352, -0.008407635539021352, -0.008407635539021352]",False,False,darker,True,0.7670733999693766,down,right,"(1, 0)","(0, 1)","(0, 0)","(0, 0)","(1, 0)","(0, 1)","(0, 0)","(0, 0)"
interactor,123,9.167904523280049,0.06961839401384115,0.0,45_bottom_d,True,3.575326499994844,,3.8418128000339493,True,"[0.06961839401384115, 0.06961839401384115, 0.06961839401384115]",False,True,lighter,,0.4160208000103012,up,right,"(0, 0)","(0, 1)","(1, 0)","(0, 0)","(0, 0)","(1, 1)","(0, 0)","(0, 0)"
empty,124,9.822480333524434,0.2637040883366023,0.335,none_u,False,,,3.8586067999713123,True,"[0.5987040883366024, 0.5987040883366024, 0.5987040883366024]",True,True,lighter,True,0.550456800032407,down,up,"(1, 1)","(0, 0)","(0, 0)","(0, 0)","(1, 1)","(0, 0)","(0, 0)","(0, 0)"
empty,125,9.403733582141538,0.35742656540279694,0.335,none_u,False,,,3.8574094999348745,True,"[0.692426565402797, 0.692426565402797, 0.692426565402797]",True,True,lighter,True,0.716435500071384,down,up,"(1, 1)","(0, 0)","(0, 0)","(0, 0)","(1, 1)","(0, 0)","(0, 0)","(0, 0)"
interactor,126,9.546942515196458,0.19876636689160115,-0.168,45_top_u,True,3.5744364999700338,,3.8417534000473097,True,"[0.030766366891601143, 0.030766366891601143, 0.030766366891601143]",False,True,darker,True,0.6170534000266343,down,left,"(1, 0)","(0, 0)","(0, 0)","(0, 1)","(0, 0)","(0, 0)","(0, 0)","(1, 1)"
empty,127,9.547088326653398,-0.017257778082130026,0.168,none_l,True,3.576477300026454,left,3.842601500102319,True,"[0.15074222191786998, 0.15074222191786998, 0.15074222191786998]",False,False,lighter,True,0.44958099990617484,right,down,"(0, 0)","(0, 0)","(0, 1)","(1, 0)","(0, 0)","(0, 0)","(0, 1)","(1, 0)"
interactor,128,9.201939542928303,-0.15328327447584186,-0.168,135_top_l,True,3.574956899974495,,3.841057699988596,True,"[-0.3212832744758419, -0.3212832744758419, -0.3212832744758419]",False,True,darker,True,0.6172295999713242,right,down,"(0, 0)","(0, 0)","(0, 1)","(1, 0)","(0, 0)","(0, 0)","(1, 1)","(0, 0)"
interactor,129,9.348493815361225,0.051513161294339097,0.168,135_bottom_d,True,3.5739532000152394,,3.8401857999851927,True,"[0.21951316129433912, 0.21951316129433912, 0.21951316129433912]",False,True,lighter,True,0.45193430001381785,up,left,"(0, 0)","(0, 0)","(1, 0)","(0, 1)","(0, 0)","(0, 0)","(0, 0)","(1, 1)"
interactor,130,9.762456165091773,0.1622727611427984,0.335,45_bottom_l,True,3.5747398999519646,,3.8429191999603063,True,"[0.4972727611427984, 0.4972727611427984, 0.4972727611427984]",False,True,lighter,True,0.4490393000887707,right,up,"(0, 1)","(0, 0)","(0, 0)","(1, 0)","(1, 1)","(0, 0)","(0, 0)","(0, 0)"
empty,131,9.502949381987172,0.4511131477898509,-0.335,none_l,True,3.5759423000272363,right,3.8428960000164807,True,"[0.11611314778985088, 0.11611314778985088, 0.11611314778985088]",False,False,darker,True,0.732313200016506,right,up,"(0, 1)","(0, 0)","(0, 0)","(1, 0)","(0, 1)","(0, 0)","(0, 0)","(1, 0)"
empty,132,9.079138019626566,-0.12344916896684757,-0.335,none_r,False,,,3.8571514999493957,True,"[-0.4584491689668476, -0.4584491689668476, -0.4584491689668476]",True,True,darker,True,0.5517025000881404,left,right,"(0, 0)","(1, 1)","(0, 0)","(0, 0)","(0, 0)","(1, 1)","(0, 0)","(0, 0)"
empty,133,9.563394395725654,0.15744491741842825,0.0,none_d,True,3.574829600052908,left,3.840998600004241,True,"[0.15744491741842825, 0.15744491741842825, 0.15744491741842825]",False,False,lighter,,0.3666201999876648,up,right,"(0, 0)","(0, 1)","(1, 0)","(0, 0)","(0, 0)","(0, 1)","(1, 0)","(0, 0)"
empty,134,9.560055913953919,0.17094117989485128,-0.168,none_d,False,,,3.8583876999327913,True,"[0.0029411798948512646, 0.0029411798948512646, 0.0029411798948512646]",True,True,lighter,False,0.48305360006634146,up,down,"(0, 0)","(0, 0)","(1, 1)","(0, 0)","(0, 0)","(0, 0)","(1, 1)","(0, 0)"
empty,135,9.67253523337226,-0.20048710124509658,0.168,none_r,False,,,3.8573714999947697,True,"[-0.03248710124509657, -0.03248710124509657, -0.03248710124509657]",True,True,lighter,True,0.8512075999751687,left,right,"(0, 0)","(1, 1)","(0, 0)","(0, 0)","(0, 0)","(1, 1)","(0, 0)","(0, 0)"
interactor,136,9.450902280543604,-0.10175976582186044,0.168,45_top_u,False,,,3.8590592000400648,True,"[0.06624023417813957, 0.06624023417813957, 0.06624023417813957]",True,False,lighter,True,0.5990703999996185,down,up,"(1, 1)","(0, 0)","(0, 0)","(0, 0)","(0, 1)","(0, 0)","(0, 0)","(1, 0)"
interactor,137,8.895312817152778,0.15510923066509283,0.335,135_bottom_d,False,,,3.8590318000642583,True,"[0.4901092306650928, 0.4901092306650928, 0.4901092306650928]",True,False,lighter,True,0.46512939990498126,up,down,"(0, 0)","(0, 0)","(1, 1)","(0, 0)","(0, 0)","(0, 0)","(0, 1)","(1, 0)"
empty,138,9.54802728451163,0.10876729049304606,-0.168,none_r,True,3.5754285000730306,left,3.8405135000357404,True,"[-0.059232709506953946, -0.059232709506953946, -0.059232709506953946]",False,False,darker,True,0.700738999992609,left,up,"(0, 1)","(1, 0)","(0, 0)","(0, 0)","(0, 1)","(1, 0)","(0, 0)","(0, 0)"
interactor,139,9.24282247488569,0.06751669347399022,0.335,45_bottom_l,True,3.574099500081502,,3.8414217000827193,True,"[0.4025166934739902, 0.4025166934739902, 0.4025166934739902]",False,True,lighter,True,0.46660819998942316,right,up,"(0, 1)","(0, 0)","(0, 0)","(1, 0)","(1, 1)","(0, 0)","(0, 0)","(0, 0)"
interactor,140,9.382528821214434,0.1948417621564386,0.0,45_top_u,False,,,3.8573407999938354,True,"[0.1948417621564386, 0.1948417621564386, 0.1948417621564386]",True,False,lighter,,0.40131940005812794,down,up,"(1, 1)","(0, 0)","(0, 0)","(0, 0)","(0, 1)","(0, 0)","(0, 0)","(1, 0)"
interactor,141,8.847731301163838,0.058584094580137386,-0.168,45_bottom_l,True,3.5733993999892846,,3.840643799980171,True,"[-0.10941590541986262, -0.10941590541986262, -0.10941590541986262]",False,True,darker,True,0.6007226000074297,right,up,"(0, 1)","(0, 0)","(0, 0)","(1, 0)","(1, 1)","(0, 0)","(0, 0)","(0, 0)"
interactor,142,8.983338514750766,0.31663351080001567,0.0,45_bottom_d,True,3.5742119000060484,,3.8415328999981284,True,"[0.31663351080001567, 0.31663351080001567, 0.31663351080001567]",False,True,lighter,,0.4162040000082925,up,right,"(0, 0)","(0, 1)","(1, 0)","(0, 0)","(0, 0)","(1, 1)","(0, 0)","(0, 0)"
interactor,143,9.681027060823014,0.1622547786623595,-0.335,45_bottom_d,True,3.574338100035675,,3.841469099977985,True,"[-0.17274522133764053, -0.17274522133764053, -0.17274522133764053]",False,True,darker,True,0.5504206999903545,up,right,"(0, 0)","(0, 1)","(1, 0)","(0, 0)","(0, 0)","(1, 1)","(0, 0)","(0, 0)"
interactor,144,10.24138497595137,0.014692781578745623,-0.168,45_bottom_d,False,,,3.8576196000212803,True,"[-0.1533072184212544, -0.1533072184212544, -0.1533072184212544]",True,False,darker,True,0.5662427000934258,up,down,"(0, 0)","(0, 0)","(1, 1)","(0, 0)","(0, 0)","(1, 0)","(0, 1)","(0, 0)"
interactor,145,9.20702551261201,0.24812582950150586,-0.335,45_bottom_d,True,3.5751959000481293,,3.8412527999607846,True,"[-0.08687417049849416, -0.08687417049849416, -0.08687417049849416]",False,True,darker,True,0.6837093000067398,up,right,"(0, 0)","(0, 1)","(1, 0)","(0, 0)","(0, 0)","(1, 1)","(0, 0)","(0, 0)"
interactor,146,9.580843949241824,0.25466956780361694,0.335,135_top_l,False,,,3.8586653999518603,True,"[0.589669567803617, 0.589669567803617, 0.589669567803617]",True,False,lighter,True,0.46617819997482,right,left,"(0, 0)","(0, 0)","(0, 0)","(1, 1)","(0, 0)","(0, 0)","(1, 0)","(0, 1)"
interactor,147,9.557795056308425,0.18806905902300133,-0.335,135_top_u,False,,,3.859332100022584,True,"[-0.1469309409769987, -0.1469309409769987, -0.1469309409769987]",True,False,darker,True,0.5165543999755755,down,up,"(1, 1)","(0, 0)","(0, 0)","(0, 0)","(0, 1)","(1, 0)","(0, 0)","(0, 0)"
interactor,148,9.607889100107267,0.4945439049629041,-0.335,45_top_u,True,3.5729484000476077,,3.841213900013827,True,"[0.1595439049629041, 0.1595439049629041, 0.1595439049629041]",False,True,lighter,False,0.6327468999661505,down,left,"(1, 0)","(0, 0)","(0, 0)","(0, 1)","(0, 0)","(0, 0)","(0, 0)","(1, 1)"
empty,149,9.512695758550722,0.024313876511499494,0.335,none_d,True,3.5747182000195608,left,3.8413234000327066,True,"[0.3593138765114995, 0.3593138765114995, 0.3593138765114995]",False,False,lighter,True,0.4675883000018075,up,right,"(0, 0)","(0, 1)","(1, 0)","(0, 0)","(0, 0)","(0, 1)","(1, 0)","(0, 0)"
empty,150,9.759948728736624,0.11362292367549122,-0.168,none_d,False,,,3.857761599938385,True,"[-0.05437707632450879, -0.05437707632450879, -0.05437707632450879]",True,True,lighter,False,0.4510989000555128,up,down,"(0, 0)","(0, 0)","(1, 1)","(0, 0)","(0, 0)","(0, 0)","(1, 1)","(0, 0)"
empty,151,9.736889208380342,0.07863480941335428,0.168,none_r,False,,,3.8573696999810636,True,"[0.2466348094133543, 0.2466348094133543, 0.2466348094133543]",True,True,lighter,True,0.5183574000839144,left,right,"(0, 0)","(1, 1)","(0, 0)","(0, 0)","(0, 0)","(1, 1)","(0, 0)","(0, 0)"
interactor,152,9.379843277566842,0.19489074938040468,-0.335,135_bottom_r,True,3.573026999947615,,3.8415161999873817,True,"[-0.14010925061959534, -0.14010925061959534, -0.14010925061959534]",False,True,darker,True,0.6495359999826178,left,up,"(0, 1)","(1, 0)","(0, 0)","(0, 0)","(1, 1)","(0, 0)","(0, 0)","(0, 0)"
empty,153,9.413348618085196,-0.020811961320424344,0.0,none_u,True,3.5747172998962924,left,3.8396223998861387,True,"[-0.020811961320424344, -0.020811961320424344, -0.020811961320424344]",False,False,darker,,0.6177100000204518,down,left,"(1, 0)","(0, 0)","(0, 0)","(0, 1)","(1, 0)","(0, 0)","(0, 0)","(0, 1)"
empty,154,9.283054720631467,0.19950222153781605,-0.335,none_r,False,,,3.858326100045815,True,"[-0.13549777846218397, -0.13549777846218397, -0.13549777846218397]",True,True,darker,True,0.5159756999928504,left,right,"(0, 0)","(1, 1)","(0, 0)","(0, 0)","(0, 0)","(1, 1)","(0, 0)","(0, 0)"
interactor,155,8.917327364419561,0.3509597539710001,0.168,135_top_l,True,3.574766399920918,,3.8410063999472186,True,"[0.5189597539710001, 0.5189597539710001, 0.5189597539710001]",False,True,lighter,True,0.384849900030531,right,down,"(0, 0)","(0, 0)","(0, 1)","(1, 0)","(0, 0)","(0, 0)","(1, 1)","(0, 0)"
empty,156,9.016443493715762,0.048842076740864174,0.0,none_d,False,,,3.8561037000035867,True,"[0.048842076740864174, 0.048842076740864174, 0.048842076740864174]",True,True,darker,,0.5855994999874383,up,down,"(0, 0)","(0, 0)","(1, 1)","(0, 0)","(0, 0)","(0, 0)","(1, 1)","(0, 0)"
interactor,157,9.184437901001195,0.30698369074405185,-0.168,45_top_u,True,3.5739689000183716,,3.8404281999683008,True,"[0.13898369074405184, 0.13898369074405184, 0.13898369074405184]",False,True,lighter,False,0.8345906999893486,down,left,"(1, 0)","(0, 0)","(0, 0)","(0, 1)","(0, 0)","(0, 0)","(0, 0)","(1, 1)"
interactor,158,9.754996011205225,0.33872233730500156,-0.335,45_bottom_l,True,3.573853599955328,,3.8410110999830067,True,"[0.003722337305001544, 0.003722337305001544, 0.003722337305001544]",False,True,lighter,False,0.634024600032717,right,up,"(0, 1)","(0, 0)","(0, 0)","(1, 0)","(1, 1)","(0, 0)","(0, 0)","(0, 0)"
interactor,159,9.787112828847185,0.16814052984974315,-0.168,135_top_u,True,3.5754960000049323,,3.8414819000754505,True,"[0.00014052984974313731, 0.00014052984974313731, 0.00014052984974313731]",False,True,darker,True,0.7834125999361277,down,right,"(1, 0)","(0, 1)","(0, 0)","(0, 0)","(0, 0)","(1, 1)","(0, 0)","(0, 0)"
empty,160,9.59146080618825,-0.003690611373250219,0.335,none_l,True,3.5746106000151485,right,3.840618300018832,True,"[0.3313093886267498, 0.3313093886267498, 0.3313093886267498]",False,False,lighter,True,0.4513301000697538,right,up,"(0, 1)","(0, 0)","(0, 0)","(1, 0)","(0, 1)","(0, 0)","(0, 0)","(1, 0)"
empty,161,9.654935233074113,-0.06129310181924455,0.168,none_u,True,3.575358900008723,right,3.8423103999812156,True,"[0.10670689818075546, 0.10670689818075546, 0.10670689818075546]",False,False,lighter,True,0.4335541999898851,down,right,"(1, 0)","(0, 1)","(0, 0)","(0, 0)","(1, 0)","(0, 1)","(0, 0)","(0, 0)"
interactor,162,9.019566722222738,0.1543107913957609,0.0,45_top_r,False,,,3.8583689000224695,True,"[0.1543107913957609, 0.1543107913957609, 0.1543107913957609]",True,False,lighter,,0.45020790002308786,left,right,"(0, 0)","(1, 1)","(0, 0)","(0, 0)","(0, 0)","(0, 1)","(1, 0)","(0, 0)"
empty,163,9.79039261302661,0.1573164619149854,0.335,none_u,False,,,3.8570535000180826,True,"[0.49231646191498546, 0.49231646191498546, 0.49231646191498546]",True,True,lighter,True,0.48448859993368387,down,up,"(1, 1)","(0, 0)","(0, 0)","(0, 0)","(1, 1)","(0, 0)","(0, 0)","(0, 0)"
interactor,164,9.435364304157243,0.41313681456119966,0.168,135_bottom_r,False,,,3.858388500055298,True,"[0.5811368145611997, 0.5811368145611997, 0.5811368145611997]",True,False,lighter,True,0.46663929999340326,left,right,"(0, 0)","(1, 1)","(0, 0)","(0, 0)","(1, 0)","(0, 1)","(0, 0)","(0, 0)"
empty,165,9.374656729920806,0.30880388186218616,0.335,none_u,True,3.5759913000511006,right,3.8427926000440493,True,"[0.6438038818621862, 0.6438038818621862, 0.6438038818621862]",False,False,lighter,True,0.4820528000127524,down,right,"(1, 0)","(0, 1)","(0, 0)","(0, 0)","(1, 0)","(0, 1)","(0, 0)","(0, 0)"
empty,166,9.1983455998214,-0.05395265567723412,-0.168,none_u,False,,,3.8576911999844015,True,"[-0.22195265567723413, -0.22195265567723413, -0.22195265567723413]",True,True,darker,True,0.600200799992308,down,up,"(1, 1)","(0, 0)","(0, 0)","(0, 0)","(1, 1)","(0, 0)","(0, 0)","(0, 0)"
empty,167,9.156137503891946,0.25534253734469436,0.335,none_r,True,3.576296400045976,right,3.842120800050907,True,"[0.5903425373446944, 0.5903425373446944, 0.5903425373446944]",False,False,lighter,True,0.4166404999559745,left,down,"(0, 0)","(1, 0)","(0, 1)","(0, 0)","(0, 0)","(1, 0)","(0, 1)","(0, 0)"
empty,168,9.790185220911727,0.05383484624625136,-0.335,none_l,False,,,3.857293499982916,True,"[-0.2811651537537487, -0.2811651537537487, -0.2811651537537487]",True,True,darker,True,0.5001989000011235,right,left,"(0, 0)","(0, 0)","(0, 0)","(1, 1)","(0, 0)","(0, 0)","(0, 0)","(1, 1)"
empty,169,9.63497090788239,0.13993155501981205,0.0,none_l,True,3.5753198000602424,left,3.8425078000873327,True,"[0.13993155501981205, 0.13993155501981205, 0.13993155501981205]",False,False,lighter,,0.465555900009349,right,down,"(0, 0)","(0, 0)","(0, 1)","(1, 0)","(0, 0)","(0, 0)","(0, 1)","(1, 0)"
interactor,170,9.515956159762993,-0.07536593996779939,0.335,45_bottom_l,False,,,3.857735599973239,True,"[0.25963406003220063, 0.25963406003220063, 0.25963406003220063]",True,False,lighter,True,0.5005482999840751,right,left,"(0, 0)","(0, 0)","(0, 0)","(1, 1)","(1, 0)","(0, 0)","(0, 0)","(0, 1)"
empty,171,9.155198661696364,0.06301336067893346,0.0,none_d,False,,,3.859245900064707,True,"[0.06301336067893346, 0.06301336067893346, 0.06301336067893346]",True,True,lighter,,0.41533819993492216,up,down,"(0, 0)","(0, 0)","(1, 1)","(0, 0)","(0, 0)","(0, 0)","(1, 1)","(0, 0)"
empty,172,9.742528016906151,0.0029237561226297115,0.335,none_u,False,,,3.858106100000441,True,"[0.3379237561226297, 0.3379237561226297, 0.3379237561226297]",True,True,lighter,True,0.5675426999805495,down,up,"(1, 1)","(0, 0)","(0, 0)","(0, 0)","(1, 1)","(0, 0)","(0, 0)","(0, 0)"
empty,173,9.768754359654743,0.14117436521127974,-0.168,none_l,False,,,3.8593908000038937,True,"[-0.02682563478872027, -0.02682563478872027, -0.02682563478872027]",True,True,darker,True,0.6985119000310078,right,left,"(0, 0)","(0, 0)","(0, 0)","(1, 1)","(0, 0)","(0, 0)","(0, 0)","(1, 1)"
interactor,174,9.312191165541433,0.15027256015880638,-0.168,135_bottom_d,True,3.5733680999837816,,3.8405638999538496,True,"[-0.017727439841193626, -0.017727439841193626, -0.017727439841193626]",False,True,darker,True,0.7180444000987336,up,left,"(0, 0)","(0, 0)","(1, 0)","(0, 1)","(0, 0)","(0, 0)","(0, 0)","(1, 1)"
interactor,175,9.184313061705087,0.2060074266846324,-0.335,135_bottom_d,False,,,3.8582014000276104,True,"[-0.12899257331536762, -0.12899257331536762, -0.12899257331536762]",True,False,lighter,False,0.5167484000558034,up,down,"(0, 0)","(0, 0)","(1, 1)","(0, 0)","(0, 0)","(0, 0)","(0, 1)","(1, 0)"
empty,176,9.589454567886381,0.3099190433113954,0.168,none_r,False,,,3.8590506000909954,True,"[0.47791904331139545, 0.47791904331139545, 0.47791904331139545]",True,True,lighter,True,0.41587459994480014,left,right,"(0, 0)","(1, 1)","(0, 0)","(0, 0)","(0, 0)","(1, 1)","(0, 0)","(0, 0)"
interactor,177,9.294913310090827,0.23150012784694415,0.168,45_top_u,False,,,3.858205800061114,True,"[0.39950012784694416, 0.39950012784694416, 0.39950012784694416]",True,False,lighter,True,0.43299330002628267,down,up,"(1, 1)","(0, 0)","(0, 0)","(0, 0)","(0, 1)","(0, 0)","(0, 0)","(1, 0)"
empty,178,8.75185909360601,0.1018395457933957,-0.168,none_r,False,,,3.8581508001079783,True,"[-0.06616045420660431, -0.06616045420660431, -0.06616045420660431]",True,True,darker,True,0.5159829999320209,left,right,"(0, 0)","(1, 1)","(0, 0)","(0, 0)","(0, 0)","(1, 1)","(0, 0)","(0, 0)"
empty,179,9.67916829021956,-0.1299472355454833,-0.168,none_l,True,3.5743845000397414,left,3.841078200028278,True,"[-0.2979472355454833, -0.2979472355454833, -0.2979472355454833]",False,False,darker,True,0.6346397999441251,right,down,"(0, 0)","(0, 0)","(0, 1)","(1, 0)","(0, 0)","(0, 0)","(0, 1)","(1, 0)"
interactor,180,9.421808842737166,0.3121056351108927,0.168,135_top_u,False,,,3.8575934999389574,True,"[0.48010563511089266, 0.48010563511089266, 0.48010563511089266]",True,False,lighter,True,0.36579009995330125,down,up,"(1, 1)","(0, 0)","(0, 0)","(0, 0)","(0, 1)","(1, 0)","(0, 0)","(0, 0)"
empty,181,9.754016373575256,0.13098315219558124,-0.335,none_u,False,,,3.8592879000352696,True,"[-0.20401684780441878, -0.20401684780441878, -0.20401684780441878]",True,True,darker,True,0.5347899000626057,down,up,"(1, 1)","(0, 0)","(0, 0)","(0, 0)","(1, 1)","(0, 0)","(0, 0)","(0, 0)"
empty,182,9.601242352068434,0.13506259347778823,0.168,none_u,True,3.573708900017664,left,3.8406477000098675,True,"[0.30306259347778824, 0.30306259347778824, 0.30306259347778824]",False,False,lighter,True,0.5013779000146315,down,left,"(1, 0)","(0, 0)","(0, 0)","(0, 1)","(1, 0)","(0, 0)","(0, 0)","(0, 1)"
interactor,183,9.471661430816534,0.19331926178071407,-0.168,135_bottom_d,True,3.5742717999964952,,3.84180870000273,True,"[0.02531926178071406, 0.02531926178071406, 0.02531926178071406]",False,True,lighter,False,0.49914369999896735,up,left,"(0, 0)","(0, 0)","(1, 0)","(0, 1)","(0, 0)","(0, 0)","(0, 0)","(1, 1)"
interactor,184,9.869149334405266,0.24877203955654548,-0.335,45_top_r,True,3.5749310000101104,,3.8592248000204563,True,"[-0.08622796044345454, -0.08622796044345454, -0.08622796044345454]",False,True,lighter,False,0.6671533999033272,left,down,"(0, 0)","(1, 0)","(0, 1)","(0, 0)","(0, 0)","(0, 0)","(1, 1)","(0, 0)"
interactor,185,9.54272469289407,0.17852912802598947,-0.168,135_top_u,False,,,3.85771700006444,True,"[0.01052912802598946, 0.01052912802598946, 0.01052912802598946]",True,False,lighter,False,0.4333844999782741,down,up,"(1, 1)","(0, 0)","(0, 0)","(0, 0)","(0, 1)","(1, 0)","(0, 0)","(0, 0)"
interactor,186,9.542027478203288,0.3293516344207781,0.335,135_bottom_r,True,3.574086399981752,,3.840222099912353,True,"[0.664351634420778, 0.664351634420778, 0.664351634420778]",False,True,lighter,True,0.4508111000759527,left,up,"(0, 1)","(1, 0)","(0, 0)","(0, 0)","(1, 1)","(0, 0)","(0, 0)","(0, 0)"
empty,187,9.538606284635089,-0.0955526292702544,-0.168,none_l,True,3.5751096999738365,left,3.8407438000431284,True,"[-0.2635526292702544, -0.2635526292702544, -0.2635526292702544]",False,False,darker,True,0.5850308999652043,right,down,"(0, 0)","(0, 0)","(0, 1)","(1, 0)","(0, 0)","(0, 0)","(0, 1)","(1, 0)"
interactor,188,9.633658298030085,0.22463133277567288,0.335,45_bottom_l,False,,,3.857701399945654,True,"[0.5596313327756729, 0.5596313327756729, 0.5596313327756729]",True,False,lighter,True,0.5505207000533119,right,left,"(0, 0)","(0, 0)","(0, 0)","(1, 1)","(1, 0)","(0, 0)","(0, 0)","(0, 1)"
interactor,189,9.502109127380146,0.3165298493874257,-0.335,45_bottom_d,False,,,3.8569438999984413,True,"[-0.018470150612574343, -0.018470150612574343, -0.018470150612574343]",True,False,lighter,False,0.6177878000307828,up,down,"(0, 0)","(0, 0)","(1, 1)","(0, 0)","(0, 0)","(1, 0)","(0, 1)","(0, 0)"
interactor,190,9.298559716632594,-0.07013398645092497,0.335,45_top_r,False,,,3.8574270999524742,True,"[0.264866013549075, 0.264866013549075, 0.264866013549075]",True,False,lighter,True,0.40079030010383576,left,right,"(0, 0)","(1, 1)","(0, 0)","(0, 0)","(0, 0)","(0, 1)","(1, 0)","(0, 0)"
interactor,191,9.65018532350911,-0.03683944992746144,-0.335,45_bottom_d,False,,,3.8586383999790996,True,"[-0.37183944992746143, -0.37183944992746143, -0.37183944992746143]",True,False,darker,True,0.6163893999764696,up,down,"(0, 0)","(0, 0)","(1, 1)","(0, 0)","(0, 0)","(1, 0)","(0, 1)","(0, 0)"
empty,192,9.360473855911799,0.19915376515048241,-0.168,none_l,False,,,3.856280600070022,True,"[0.031153765150482404, 0.031153765150482404, 0.031153765150482404]",True,True,darker,True,0.7173113999888301,right,left,"(0, 0)","(0, 0)","(0, 0)","(1, 1)","(0, 0)","(0, 0)","(0, 0)","(1, 1)"
interactor,193,9.887565562456606,0.08079835334463048,0.168,45_bottom_d,False,,,3.8592895000474527,True,"[0.2487983533446305, 0.2487983533446305, 0.2487983533446305]",True,False,lighter,True,0.4329767999006435,up,down,"(0, 0)","(0, 0)","(1, 1)","(0, 0)","(0, 0)","(1, 0)","(0, 1)","(0, 0)"
empty,194,9.473557730841389,0.02215099907026552,0.168,none_d,False,,,3.857834200025536,True,"[0.19015099907026553, 0.19015099907026553, 0.19015099907026553]",True,True,lighter,True,0.41729040001519024,up,down,"(0, 0)","(0, 0)","(1, 1)","(0, 0)","(0, 0)","(0, 0)","(1, 1)","(0, 0)"
interactor,195,9.093177573706532,0.27666529590752464,0.335,135_top_l,False,,,3.856927299988456,True,"[0.6116652959075246, 0.6116652959075246, 0.6116652959075246]",True,False,lighter,True,0.4177905999822542,right,left,"(0, 0)","(0, 0)","(0, 0)","(1, 1)","(0, 0)","(0, 0)","(1, 0)","(0, 1)"
interactor,196,9.302654598967363,0.236143527660226,-0.168,45_bottom_l,False,,,3.857683900045231,True,"[0.068143527660226, 0.068143527660226, 0.068143527660226]",True,False,darker,True,0.5343778999522328,right,left,"(0, 0)","(0, 0)","(0, 0)","(1, 1)","(1, 0)","(0, 0)","(0, 0)","(0, 1)"
empty,197,9.44424983434071,-0.16397446917905587,-0.335,none_l,False,,,3.857840899960138,True,"[-0.49897446917905586, -0.49897446917905586, -0.49897446917905586]",True,True,darker,True,0.4998249000636861,right,left,"(0, 0)","(0, 0)","(0, 0)","(1, 1)","(0, 0)","(0, 0)","(0, 0)","(1, 1)"
empty,198,9.695667416531991,-0.00020291648238057736,-0.335,none_l,True,3.5744002999272197,left,3.8422569999238476,True,"[-0.3352029164823806, -0.3352029164823806, -0.3352029164823806]",False,False,darker,True,0.7336929000448436,right,down,"(0, 0)","(0, 0)","(0, 1)","(1, 0)","(0, 0)","(0, 0)","(0, 1)","(1, 0)"
empty,199,9.631344012278522,0.24658609199649917,0.0,none_d,True,3.5749383999500424,right,3.841200599912554,True,"[0.24658609199649917, 0.24658609199649917, 0.24658609199649917]",False,False,lighter,,0.7167603999841958,up,left,"(0, 0)","(0, 0)","(1, 0)","(0, 1)","(0, 0)","(0, 0)","(1, 0)","(0, 1)"
empty,200,9.431483738089602,0.24212704105344535,0.0,none_r,False,,,3.857595199951902,True,"[0.24212704105344535, 0.24212704105344535, 0.24212704105344535]",True,True,lighter,,0.5495236000278965,left,right,"(0, 0)","(1, 1)","(0, 0)","(0, 0)","(0, 0)","(1, 1)","(0, 0)","(0, 0)"
empty,201,9.490448986566303,0.28420169368032777,0.168,none_r,False,,,3.858794100000523,True,"[0.4522016936803278, 0.4522016936803278, 0.4522016936803278]",True,True,lighter,True,0.6183707999298349,left,right,"(0, 0)","(1, 1)","(0, 0)","(0, 0)","(0, 0)","(1, 1)","(0, 0)","(0, 0)"
interactor,202,9.640431585610953,-0.09586164858146878,0.168,45_top_u,True,3.5748015000717714,,3.8410188000416383,True,"[0.07213835141853123, 0.07213835141853123, 0.07213835141853123]",False,True,darker,False,0.5508815000066534,down,left,"(1, 0)","(0, 0)","(0, 0)","(0, 1)","(0, 0)","(0, 0)","(0, 0)","(1, 1)"
empty,203,9.502867066470019,0.013312005340256589,0.168,none_d,False,,,3.857956700026989,True,"[0.1813120053402566, 0.1813120053402566, 0.1813120053402566]",True,True,lighter,True,0.4670846000080928,up,down,"(0, 0)","(0, 0)","(1, 1)","(0, 0)","(0, 0)","(0, 0)","(1, 1)","(0, 0)"
interactor,204,9.627907990548294,-0.06158707130128141,-0.168,45_bottom_l,True,3.5757471999386325,,3.8408522999379784,True,"[-0.22958707130128142, -0.22958707130128142, -0.22958707130128142]",False,True,darker,True,0.5848137000575662,right,up,"(0, 1)","(0, 0)","(0, 0)","(1, 0)","(1, 1)","(0, 0)","(0, 0)","(0, 0)"
empty,205,9.70315180871298,-0.18786733420215543,-0.168,none_r,False,,,3.8563082999316975,True,"[-0.35586733420215544, -0.35586733420215544, -0.35586733420215544]",True,True,darker,True,0.5686977000441402,left,right,"(0, 0)","(1, 1)","(0, 0)","(0, 0)","(0, 0)","(1, 1)","(0, 0)","(0, 0)"
interactor,206,9.930771412230886,0.1372525764446069,0.168,135_bottom_d,False,,,3.858090199995786,True,"[0.3052525764446069, 0.3052525764446069, 0.3052525764446069]",True,False,lighter,True,0.46521309996023774,up,down,"(0, 0)","(0, 0)","(1, 1)","(0, 0)","(0, 0)","(0, 0)","(0, 1)","(1, 0)"
empty,207,9.595014126129247,0.2378132486340016,-0.168,none_r,True,3.5726870000362396,right,3.839527599979192,True,"[0.0698132486340016, 0.0698132486340016, 0.0698132486340016]",False,False,lighter,False,0.4506319999927655,left,down,"(0, 0)","(1, 0)","(0, 1)","(0, 0)","(0, 0)","(1, 0)","(0, 1)","(0, 0)"
empty,208,9.314068452862614,-0.1782506841779455,-0.335,none_l,False,,,3.858888400020078,True,"[-0.5132506841779455, -0.5132506841779455, -0.5132506841779455]",True,True,darker,True,0.5491391000105068,right,left,"(0, 0)","(0, 0)","(0, 0)","(1, 1)","(0, 0)","(0, 0)","(0, 0)","(1, 1)"
interactor,209,9.423712711511326,0.42352157834661985,-0.335,135_top_l,False,,,3.8560902000172064,True,"[0.08852157834661983, 0.08852157834661983, 0.08852157834661983]",True,False,lighter,False,0.6190665999893099,right,left,"(0, 0)","(0, 0)","(0, 0)","(1, 1)","(0, 0)","(0, 0)","(1, 0)","(0, 1)"
interactor,210,9.354784161547776,0.3286045082043013,0.0,135_bottom_d,True,3.5749842999503016,,3.840990300057456,True,"[0.3286045082043013, 0.3286045082043013, 0.3286045082043013]",False,True,lighter,,0.48352139990311116,up,left,"(0, 0)","(0, 0)","(1, 0)","(0, 1)","(0, 0)","(0, 0)","(0, 0)","(1, 1)"
interactor,211,9.13364246272203,-0.20633147454054343,0.0,45_top_u,False,,,3.8587615999858826,True,"[-0.20633147454054343, -0.20633147454054343, -0.20633147454054343]",True,False,darker,,0.5499534000409767,down,up,"(1, 1)","(0, 0)","(0, 0)","(0, 0)","(0, 1)","(0, 0)","(0, 0)","(1, 0)"
empty,212,9.00610989147326,0.32014591319055474,0.0,none_u,False,,,3.858110300032422,True,"[0.32014591319055474, 0.32014591319055474, 0.32014591319055474]",True,True,lighter,,0.5685019999509677,down,up,"(1, 1)","(0, 0)","(0, 0)","(0, 0)","(1, 1)","(0, 0)","(0, 0)","(0, 0)"
empty,213,9.5102505852634,0.033050983605485515,0.168,none_u,False,,,3.858348499983549,True,"[0.2010509836054855, 0.2010509836054855, 0.2010509836054855]",True,True,lighter,True,0.499988800031133,down,up,"(1, 1)","(0, 0)","(0, 0)","(0, 0)","(1, 1)","(0, 0)","(0, 0)","(0, 0)"
interactor,214,9.787310252954589,-0.008412359187145363,-0.168,45_top_r,True,3.5753619000315666,,3.8417146999854594,True,"[-0.17641235918714537, -0.17641235918714537, -0.17641235918714537]",False,True,darker,True,0.6176058000419289,left,down,"(0, 0)","(1, 0)","(0, 1)","(0, 0)","(0, 0)","(0, 0)","(1, 1)","(0, 0)"
interactor,215,9.220999529968308,0.3990852725647339,0.335,45_bottom_d,True,3.5752204000018537,,3.8415456000948325,True,"[0.734085272564734, 0.734085272564734, 0.734085272564734]",False,True,lighter,True,0.5013299999991432,up,right,"(0, 0)","(0, 1)","(1, 0)","(0, 0)","(0, 0)","(1, 1)","(0, 0)","(0, 0)"
empty,216,9.169773184822978,0.15934294180701344,0.335,none_r,False,,,3.8566509999800473,True,"[0.49434294180701344, 0.49434294180701344, 0.49434294180701344]",True,True,lighter,True,0.5189586000051349,left,right,"(0, 0)","(1, 1)","(0, 0)","(0, 0)","(0, 0)","(1, 1)","(0, 0)","(0, 0)"
interactor,217,9.538969440847866,0.2015154645075571,0.0,135_top_l,True,3.574016600032337,,3.842582800076343,True,"[0.2015154645075571, 0.2015154645075571, 0.2015154645075571]",False,True,lighter,,0.7335748999612406,right,down,"(0, 0)","(0, 0)","(0, 1)","(1, 0)","(0, 0)","(0, 0)","(1, 1)","(0, 0)"
empty,218,9.659588763097569,0.12711597756253312,0.335,none_r,False,,,3.8596725000534207,True,"[0.46211597756253314, 0.46211597756253314, 0.46211597756253314]",True,True,lighter,True,0.39869009994436055,left,right,"(0, 0)","(1, 1)","(0, 0)","(0, 0)","(0, 0)","(1, 1)","(0, 0)","(0, 0)"
empty,219,9.467455331044945,0.3201224414784972,-0.168,none_u,True,3.575122700072825,right,3.8429930000565946,True,"[0.1521224414784972, 0.1521224414784972, 0.1521224414784972]",False,False,lighter,False,0.38302910001948476,down,right,"(1, 0)","(0, 1)","(0, 0)","(0, 0)","(1, 0)","(0, 1)","(0, 0)","(0, 0)"
empty,220,9.58941536163207,-0.14789145911141918,0.335,none_r,False,,,3.856737000052817,True,"[0.18710854088858084, 0.18710854088858084, 0.18710854088858084]",True,True,darker,False,0.6183252999326214,left,right,"(0, 0)","(1, 1)","(0, 0)","(0, 0)","(0, 0)","(1, 1)","(0, 0)","(0, 0)"
empty,221,9.952117988585993,0.06033593058573748,-0.168,none_u,False,,,3.8593943999148905,True,"[-0.10766406941426253, -0.10766406941426253, -0.10766406941426253]",True,True,darker,True,0.5168233000440523,down,up,"(1, 1)","(0, 0)","(0, 0)","(0, 0)","(1, 1)","(0, 0)","(0, 0)","(0, 0)"
empty,222,9.126783736735595,0.3232297391783283,0.335,none_d,False,,,3.8585954998852685,True,"[0.6582297391783283, 0.6582297391783283, 0.6582297391783283]",True,True,lighter,True,0.4335088001098484,up,down,"(0, 0)","(0, 0)","(1, 1)","(0, 0)","(0, 0)","(0, 0)","(1, 1)","(0, 0)"
interactor,223,9.852589160295425,0.18534967992668078,-0.335,135_bottom_d,False,,,3.85655859997496,True,"[-0.14965032007331924, -0.14965032007331924, -0.14965032007331924]",True,False,darker,True,0.6837190999649465,up,down,"(0, 0)","(0, 0)","(1, 1)","(0, 0)","(0, 0)","(0, 0)","(0, 1)","(1, 0)"
interactor,224,9.413103352045361,0.09706510623587347,0.335,45_bottom_d,True,3.574092200025916,,3.8424786999821663,True,"[0.43206510623587346, 0.43206510623587346, 0.43206510623587346]",False,True,lighter,True,0.43322720006108284,up,right,"(0, 0)","(0, 1)","(1, 0)","(0, 0)","(0, 0)","(1, 1)","(0, 0)","(0, 0)"
empty,225,9.61993925555327,-0.2577500529683564,0.335,none_r,True,3.572830200078897,right,3.8405482000671327,True,"[0.07724994703164362, 0.07724994703164362, 0.07724994703164362]",False,False,lighter,True,0.4345882999477908,left,down,"(0, 0)","(1, 0)","(0, 1)","(0, 0)","(0, 0)","(1, 0)","(0, 1)","(0, 0)"
empty,226,9.092702420311541,0.009670335529068597,-0.335,none_l,True,3.5742101999931037,left,3.8412522999569774,True,"[-0.3253296644709314, -0.3253296644709314, -0.3253296644709314]",False,False,darker,True,0.48311659996397793,right,down,"(0, 0)","(0, 0)","(0, 1)","(1, 0)","(0, 0)","(0, 0)","(0, 1)","(1, 0)"
interactor,227,9.541465282124982,0.06339469144155128,0.168,45_top_r,True,3.573579299962148,,3.84190130000934,True,"[0.23139469144155128, 0.23139469144155128, 0.23139469144155128]",False,True,darker,False,0.5328161999350414,left,down,"(0, 0)","(1, 0)","(0, 1)","(0, 0)","(0, 0)","(0, 0)","(1, 1)","(0, 0)"
empty,228,9.717622059868678,0.1930739967863574,0.335,none_d,True,3.5742814000695944,left,3.8410995999583974,True,"[0.5280739967863575, 0.5280739967863575, 0.5280739967863575]",False,False,lighter,True,0.3990486999973655,up,right,"(0, 0)","(0, 1)","(1, 0)","(0, 0)","(0, 0)","(0, 1)","(1, 0)","(0, 0)"
interactor,229,9.68279570883568,0.07009111675469981,-0.168,135_bottom_r,False,,,3.859246199950576,True,"[-0.0979088832453002, -0.0979088832453002, -0.0979088832453002]",True,False,darker,True,0.6988182000350207,left,right,"(0, 0)","(1, 1)","(0, 0)","(0, 0)","(1, 0)","(0, 1)","(0, 0)","(0, 0)"
empty,230,9.817523652627143,-0.13766424260968854,0.0,none_u,False,,,3.857116400031373,True,"[-0.13766424260968854, -0.13766424260968854, -0.13766424260968854]",True,True,darker,,0.6005426000338048,down,up,"(1, 1)","(0, 0)","(0, 0)","(0, 0)","(1, 1)","(0, 0)","(0, 0)","(0, 0)"
empty,231,9.407718744047855,-0.12805225836002518,0.0,none_u,True,3.5766116000013426,right,3.8417464999947697,True,"[-0.12805225836002518, -0.12805225836002518, -0.12805225836002518]",False,False,darker,,0.834072700003162,down,right,"(1, 0)","(0, 1)","(0, 0)","(0, 0)","(1, 0)","(0, 1)","(0, 0)","(0, 0)"
empty,232,9.652886375628187,0.5074351931907778,0.335,none_d,False,,,3.8586854999884963,True,"[0.8424351931907779, 0.8424351931907779, 0.8424351931907779]",True,True,lighter,True,0.44966130005195737,up,down,"(0, 0)","(0, 0)","(1, 1)","(0, 0)","(0, 0)","(0, 0)","(1, 1)","(0, 0)"
interactor,233,9.543876582666158,0.21565509805921007,0.0,45_bottom_l,False,,,3.8578372000483796,True,"[0.21565509805921007, 0.21565509805921007, 0.21565509805921007]",True,False,lighter,,0.5689057999989018,right,left,"(0, 0)","(0, 0)","(0, 0)","(1, 1)","(1, 0)","(0, 0)","(0, 0)","(0, 1)"
empty,234,9.209434040168667,0.049398643619640345,0.335,none_l,False,,,3.8575472000520676,True,"[0.3843986436196404, 0.3843986436196404, 0.3843986436196404]",True,True,lighter,True,0.46730010001920164,right,left,"(0, 0)","(0, 0)","(0, 0)","(1, 1)","(0, 0)","(0, 0)","(0, 0)","(1, 1)"
empty,235,9.743906993223177,0.15916615210299442,0.335,none_d,True,3.5745220000389963,right,3.83983180008363,True,"[0.4941661521029944, 0.4941661521029944, 0.4941661521029944]",False,False,lighter,True,0.43513270001858473,up,left,"(0, 0)","(0, 0)","(1, 0)","(0, 1)","(0, 0)","(0, 0)","(1, 0)","(0, 1)"
empty,236,9.347980161334116,0.3568997544102951,-0.335,none_u,False,,,3.8584478000411764,True,"[0.02189975441029507, 0.02189975441029507, 0.02189975441029507]",True,True,darker,True,0.5846072999993339,down,up,"(1, 1)","(0, 0)","(0, 0)","(0, 0)","(1, 1)","(0, 0)","(0, 0)","(0, 0)"
interactor,237,9.47212226337769,0.17106773168135492,-0.335,45_top_u,False,,,3.85769629990682,True,"[-0.1639322683186451, -0.1639322683186451, -0.1639322683186451]",True,False,darker,True,0.5509232000913471,down,up,"(1, 1)","(0, 0)","(0, 0)","(0, 0)","(0, 1)","(0, 0)","(0, 0)","(1, 0)"
empty,238,9.7697336004261,0.1870333568627221,-0.168,none_l,True,3.574963800027035,right,3.841978900018148,True,"[0.01903335686272209, 0.01903335686272209, 0.01903335686272209]",False,False,lighter,False,0.5839566000504419,right,up,"(0, 1)","(0, 0)","(0, 0)","(1, 0)","(0, 1)","(0, 0)","(0, 0)","(1, 0)"
interactor,239,9.229037173692518,0.1898503337179714,0.168,45_top_r,True,3.5745855999412015,,3.841817899956368,True,"[0.35785033371797137, 0.35785033371797137, 0.35785033371797137]",False,True,lighter,True,0.45013060001656413,left,down,"(0, 0)","(1, 0)","(0, 1)","(0, 0)","(0, 0)","(0, 0)","(1, 1)","(0, 0)"
interactor,240,9.223685474818883,0.20441744744070967,-0.168,45_bottom_d,False,,,3.856916199903935,True,"[0.036417447440709655, 0.036417447440709655, 0.036417447440709655]",True,False,lighter,False,0.5171945000765845,up,down,"(0, 0)","(0, 0)","(1, 1)","(0, 0)","(0, 0)","(1, 0)","(0, 1)","(0, 0)"
empty,241,9.937388484305403,0.33002453182607216,-0.335,none_r,True,3.5737515999935567,right,3.857943900045939,True,"[-0.004975468173927855, -0.004975468173927855, -0.004975468173927855]",False,False,lighter,False,0.5333150000078604,left,down,"(0, 0)","(1, 0)","(0, 1)","(0, 0)","(0, 0)","(1, 0)","(0, 1)","(0, 0)"
interactor,242,9.865302597767501,-0.005068667015374839,0.168,45_top_r,False,,,3.8567402999615297,True,"[0.16293133298462517, 0.16293133298462517, 0.16293133298462517]",True,False,lighter,True,0.4337709000101313,left,right,"(0, 0)","(1, 1)","(0, 0)","(0, 0)","(0, 0)","(0, 1)","(1, 0)","(0, 0)"
interactor,243,9.767396001282005,0.06716209678190116,0.168,45_top_r,False,,,3.856680399971083,True,"[0.23516209678190117, 0.23516209678190117, 0.23516209678190117]",True,False,lighter,True,0.45141860004514456,left,right,"(0, 0)","(1, 1)","(0, 0)","(0, 0)","(0, 0)","(0, 1)","(1, 0)","(0, 0)"
interactor,244,9.878794056898641,0.10911956884324811,-0.168,45_top_u,False,,,3.859108699951321,True,"[-0.0588804311567519, -0.0588804311567519, -0.0588804311567519]",True,False,lighter,False,0.48335120000410825,down,up,"(1, 1)","(0, 0)","(0, 0)","(0, 0)","(0, 1)","(0, 0)","(0, 0)","(1, 0)"
interactor,245,9.53688595421343,0.16364178745653032,0.168,135_top_u,True,3.5740526999579743,,3.840296300011687,True,"[0.33164178745653033, 0.33164178745653033, 0.33164178745653033]",False,True,lighter,True,0.48374539997894317,down,right,"(1, 0)","(0, 1)","(0, 0)","(0, 0)","(0, 0)","(1, 1)","(0, 0)","(0, 0)"
empty,246,9.249324271833661,0.0020057574344176654,-0.168,none_r,True,3.5750419000396505,left,3.8406635000137612,True,"[-0.16599424256558235, -0.16599424256558235, -0.16599424256558235]",False,False,darker,True,0.5512283000862226,left,up,"(0, 1)","(1, 0)","(0, 0)","(0, 0)","(0, 1)","(1, 0)","(0, 0)","(0, 0)"
empty,247,9.444505556306051,0.11135353920795149,0.335,none_l,True,3.5750826000003144,left,3.8402612999780104,True,"[0.4463535392079515, 0.4463535392079515, 0.4463535392079515]",False,False,lighter,True,0.43497460009530187,right,down,"(0, 0)","(0, 0)","(0, 1)","(1, 0)","(0, 0)","(0, 0)","(0, 1)","(1, 0)"
empty,248,9.414504167549849,-0.08430541404390096,-0.335,none_u,False,,,3.8577933000633493,True,"[-0.419305414043901, -0.419305414043901, -0.419305414043901]",True,True,darker,True,0.5357103999704123,down,up,"(1, 1)","(0, 0)","(0, 0)","(0, 0)","(1, 1)","(0, 0)","(0, 0)","(0, 0)"
empty,249,9.410186288152026,0.20428023729490444,0.168,none_l,False,,,3.859054600005038,True,"[0.37228023729490445, 0.37228023729490445, 0.37228023729490445]",True,True,lighter,True,0.4175937999971211,right,left,"(0, 0)","(0, 0)","(0, 0)","(1, 1)","(0, 0)","(0, 0)","(0, 0)","(1, 1)"
interactor,250,9.94351757877195,0.1963383407177613,-0.168,135_top_u,False,,,3.8579852000111714,True,"[0.028338340717761284, 0.028338340717761284, 0.028338340717761284]",True,False,lighter,False,0.5329224999295548,down,up,"(1, 1)","(0, 0)","(0, 0)","(0, 0)","(0, 1)","(1, 0)","(0, 0)","(0, 0)"
empty,251,9.550466588794118,-0.0016283832368457207,-0.168,none_r,False,,,3.8579007999505848,True,"[-0.16962838323684573, -0.16962838323684573, -0.16962838323684573]",True,True,darker,True,0.700980200082995,left,right,"(0, 0)","(1, 1)","(0, 0)","(0, 0)","(0, 0)","(1, 1)","(0, 0)","(0, 0)"
interactor,252,9.976939660736459,0.18400745298425591,-0.335,135_top_u,True,3.5752431999426335,,3.8592348999809474,True,"[-0.1509925470157441, -0.1509925470157441, -0.1509925470157441]",False,True,lighter,False,0.4992027999833226,down,right,"(1, 0)","(0, 1)","(0, 0)","(0, 0)","(0, 0)","(1, 1)","(0, 0)","(0, 0)"
interactor,253,9.497216444480753,-0.008433376644679386,-0.335,135_bottom_d,True,3.5725208999356255,,3.840710600023158,True,"[-0.34343337664467943, -0.34343337664467943, -0.34343337664467943]",False,True,darker,True,0.5833551000105217,up,left,"(0, 0)","(0, 0)","(1, 0)","(0, 1)","(0, 0)","(0, 0)","(0, 0)","(1, 1)"
empty,254,9.364111390752322,0.17475401176258998,0.168,none_u,False,,,3.8586466000415385,True,"[0.34275401176259, 0.34275401176259, 0.34275401176259]",True,True,lighter,True,0.399477900005877,down,up,"(1, 1)","(0, 0)","(0, 0)","(0, 0)","(1, 1)","(0, 0)","(0, 0)","(0, 0)"
empty,255,9.851130107307293,0.10410339122400285,-0.168,none_u,True,3.57451189996209,left,3.8593811000464484,True,"[-0.06389660877599716, -0.06389660877599716, -0.06389660877599716]",False,False,darker,True,0.45045469992328435,down,left,"(1, 0)","(0, 0)","(0, 0)","(0, 1)","(1, 0)","(0, 0)","(0, 0)","(0, 1)"
empty,256,9.540608173539217,0.3398973507932984,0.335,none_r,True,3.5737514999927953,left,3.840758799924515,True,"[0.6748973507932985, 0.6748973507932985, 0.6748973507932985]",False,False,lighter,True,0.5325292000779882,left,up,"(0, 1)","(1, 0)","(0, 0)","(0, 0)","(0, 1)","(1, 0)","(0, 0)","(0, 0)"
empty,257,9.54443815524443,0.17617857294242334,0.335,none_d,True,3.574434700072743,right,3.840165500063449,True,"[0.5111785729424234, 0.5111785729424234, 0.5111785729424234]",False,False,lighter,True,0.5344387999502942,up,left,"(0, 0)","(0, 0)","(1, 0)","(0, 1)","(0, 0)","(0, 0)","(1, 0)","(0, 1)"
empty,258,9.546794144865167,0.2418180028130048,0.0,none_d,True,3.5736289999913424,right,3.840778399957344,True,"[0.2418180028130048, 0.2418180028130048, 0.2418180028130048]",False,False,lighter,,0.5003388000186533,up,left,"(0, 0)","(0, 0)","(1, 0)","(0, 1)","(0, 0)","(0, 0)","(1, 0)","(0, 1)"
interactor,259,9.620472970811058,0.1378029381462944,-0.168,135_top_l,False,,,3.8588981999782845,True,"[-0.030197061853705603, -0.030197061853705603, -0.030197061853705603]",True,False,darker,True,0.6332546999910846,right,left,"(0, 0)","(0, 0)","(0, 0)","(1, 1)","(0, 0)","(0, 0)","(1, 0)","(0, 1)"
empty,260,9.875182774707064,0.10035908646700781,0.335,none_r,False,,,3.8583360000047833,True,"[0.4353590864670078, 0.4353590864670078, 0.4353590864670078]",True,True,lighter,True,0.4347057999111712,left,right,"(0, 0)","(1, 1)","(0, 0)","(0, 0)","(0, 0)","(1, 1)","(0, 0)","(0, 0)"
empty,261,9.589200579374252,0.030648113235731633,0.335,none_d,False,,,3.8575639000628144,True,"[0.36564811323573165, 0.36564811323573165, 0.36564811323573165]",True,True,lighter,True,0.36588059994392097,up,down,"(0, 0)","(0, 0)","(1, 1)","(0, 0)","(0, 0)","(0, 0)","(1, 1)","(0, 0)"
empty,262,9.417327779074142,0.04507113189818243,-0.168,none_r,True,3.5744396999944,right,3.8413875000551343,True,"[-0.12292886810181758, -0.12292886810181758, -0.12292886810181758]",False,False,lighter,False,0.4505881000077352,left,down,"(0, 0)","(1, 0)","(0, 1)","(0, 0)","(0, 0)","(1, 0)","(0, 1)","(0, 0)"
empty,263,9.650600734703543,0.3083213910875734,-0.335,none_d,False,,,3.8578400999540463,True,"[-0.026678608912426627, -0.026678608912426627, -0.026678608912426627]",True,True,lighter,False,0.651310499990359,up,down,"(0, 0)","(0, 0)","(1, 1)","(0, 0)","(0, 0)","(0, 0)","(1, 1)","(0, 0)"
empty,264,9.533781055524258,0.2606281122088466,-0.168,none_d,False,,,3.858356500044465,True,"[0.09262811220884656, 0.09262811220884656, 0.09262811220884656]",True,True,darker,True,0.8167191999964416,up,down,"(0, 0)","(0, 0)","(1, 1)","(0, 0)","(0, 0)","(0, 0)","(1, 1)","(0, 0)"
interactor,265,9.765333161116883,-0.017229046870975512,0.0,135_bottom_d,False,,,3.8576160999946296,True,"[-0.017229046870975512, -0.017229046870975512, -0.017229046870975512]",True,False,lighter,,0.5845557000720873,up,down,"(0, 0)","(0, 0)","(1, 1)","(0, 0)","(0, 0)","(0, 0)","(0, 1)","(1, 0)"
empty,266,9.29532223603124,0.517895905214554,0.0,none_l,False,,,3.8570469999685884,True,"[0.517895905214554, 0.517895905214554, 0.517895905214554]",True,True,lighter,,0.5004425001097843,right,left,"(0, 0)","(0, 0)","(0, 0)","(1, 1)","(0, 0)","(0, 0)","(0, 0)","(1, 1)"
empty,267,9.457102721161416,0.14824163379953,0.335,none_l,True,3.5752172999782488,left,3.8419905999908224,True,"[0.48324163379953, 0.48324163379953, 0.48324163379953]",False,False,lighter,True,0.5000955000286922,right,down,"(0, 0)","(0, 0)","(0, 1)","(1, 0)","(0, 0)","(0, 0)","(0, 1)","(1, 0)"
empty,268,9.211543960264082,0.18076476381106893,-0.168,none_u,False,,,3.8588379999855533,True,"[0.012764763811068919, 0.012764763811068919, 0.012764763811068919]",True,True,darker,True,0.5492734999861568,down,up,"(1, 1)","(0, 0)","(0, 0)","(0, 0)","(1, 1)","(0, 0)","(0, 0)","(0, 0)"
empty,269,9.513304494717929,-0.0806427743278812,0.0,none_l,False,,,3.8578374000499025,True,"[-0.0806427743278812, -0.0806427743278812, -0.0806427743278812]",True,True,darker,,0.6677550999447703,right,left,"(0, 0)","(0, 0)","(0, 0)","(1, 1)","(0, 0)","(0, 0)","(0, 0)","(1, 1)"
empty,270,9.983606219302466,0.120051881691756,0.0,none_r,False,,,3.8577624999452382,True,"[0.120051881691756, 0.120051881691756, 0.120051881691756]",True,True,lighter,,0.6326412000926211,left,right,"(0, 0)","(1, 1)","(0, 0)","(0, 0)","(0, 0)","(1, 1)","(0, 0)","(0, 0)"
interactor,271,9.624797311777975,-0.12653176899971277,0.168,135_bottom_d,True,3.576335599995218,,3.84259330003988,True,"[0.04146823100028724, 0.04146823100028724, 0.04146823100028724]",False,True,lighter,True,0.5002674999414012,up,left,"(0, 0)","(0, 0)","(1, 0)","(0, 1)","(0, 0)","(0, 0)","(0, 0)","(1, 1)"
interactor,272,9.650656966710377,0.24352108617703283,0.0,135_top_u,False,,,3.8582103999797255,True,"[0.24352108617703283, 0.24352108617703283, 0.24352108617703283]",True,False,lighter,,0.5509613000322133,down,up,"(1, 1)","(0, 0)","(0, 0)","(0, 0)","(0, 1)","(1, 0)","(0, 0)","(0, 0)"
empty,273,9.402379765337933,-0.0977065734056363,-0.168,none_l,True,3.57489229994826,left,3.8421091999625787,True,"[-0.2657065734056363, -0.2657065734056363, -0.2657065734056363]",False,False,darker,True,0.6669092000229284,right,down,"(0, 0)","(0, 0)","(0, 1)","(1, 0)","(0, 0)","(0, 0)","(0, 1)","(1, 0)"
empty,274,9.481743484102974,-0.006122693513217509,-0.335,none_l,True,3.5748641999671236,left,3.8419325000140816,True,"[-0.34112269351321756, -0.34112269351321756, -0.34112269351321756]",False,False,darker,True,0.649333699955605,right,down,"(0, 0)","(0, 0)","(0, 1)","(1, 0)","(0, 0)","(0, 0)","(0, 1)","(1, 0)"
interactor,275,9.71604865180949,0.34277202269750556,-0.168,45_top_r,False,,,3.8586200000718236,True,"[0.17477202269750555, 0.17477202269750555, 0.17477202269750555]",True,False,lighter,False,0.5493284999392927,left,right,"(0, 0)","(1, 1)","(0, 0)","(0, 0)","(0, 0)","(0, 1)","(1, 0)","(0, 0)"
empty,276,9.502690073926155,0.09798530093575586,-0.168,none_d,True,3.575117400032468,left,3.8413071000250056,True,"[-0.07001469906424415, -0.07001469906424415, -0.07001469906424415]",False,False,lighter,False,0.5345293000573292,up,right,"(0, 0)","(0, 1)","(1, 0)","(0, 0)","(0, 0)","(0, 1)","(1, 0)","(0, 0)"
interactor,277,9.707010516250232,0.08302232420479116,0.335,135_bottom_d,True,3.5739677000092342,,3.8411112999310717,True,"[0.4180223242047912, 0.4180223242047912, 0.4180223242047912]",False,True,lighter,True,0.5000973000423983,up,left,"(0, 0)","(0, 0)","(1, 0)","(0, 1)","(0, 0)","(0, 0)","(0, 0)","(1, 1)"
interactor,278,9.411462330119914,0.0197090674874143,0.168,45_top_u,True,3.5740941000403836,,3.8413902999600396,True,"[0.1877090674874143, 0.1877090674874143, 0.1877090674874143]",False,True,lighter,True,0.5674369999906048,down,left,"(1, 0)","(0, 0)","(0, 0)","(0, 1)","(0, 0)","(0, 0)","(0, 0)","(1, 1)"
empty,279,9.468699316332742,0.0023479258880248766,0.168,none_l,True,3.574634100077674,right,3.840834000031464,True,"[0.1703479258880249, 0.1703479258880249, 0.1703479258880249]",False,False,lighter,True,0.484316400019452,right,up,"(0, 1)","(0, 0)","(0, 0)","(1, 0)","(0, 1)","(0, 0)","(0, 0)","(1, 0)"
empty,280,10.009026311227652,0.10716938404211472,-0.168,none_r,False,,,3.857259999960661,True,"[-0.06083061595788529, -0.06083061595788529, -0.06083061595788529]",True,True,darker,True,0.5849041999317706,left,right,"(0, 0)","(1, 1)","(0, 0)","(0, 0)","(0, 0)","(1, 1)","(0, 0)","(0, 0)"
interactor,281,9.70473834743839,0.30361782309171925,0.335,135_top_u,True,3.5756717000622302,,3.8418544000014663,True,"[0.6386178230917192, 0.6386178230917192, 0.6386178230917192]",False,True,lighter,True,0.5497819000156596,down,right,"(1, 0)","(0, 1)","(0, 0)","(0, 0)","(0, 0)","(1, 1)","(0, 0)","(0, 0)"
interactor,282,9.15571126729671,0.36664600583262985,-0.335,135_top_l,True,3.574357800069265,,3.841611700016074,True,"[0.03164600583262983, 0.03164600583262983, 0.03164600583262983]",False,True,lighter,False,0.5507999999681488,right,down,"(0, 0)","(0, 0)","(0, 1)","(1, 0)","(0, 0)","(0, 0)","(1, 1)","(0, 0)"
interactor,283,9.674171376616114,0.23995005252322116,-0.335,135_top_l,False,,,3.857512899907306,True,"[-0.09504994747677886, -0.09504994747677886, -0.09504994747677886]",True,False,darker,True,0.5164973000064492,right,left,"(0, 0)","(0, 0)","(0, 0)","(1, 1)","(0, 0)","(0, 0)","(1, 0)","(0, 1)"
interactor,284,9.459218678059418,0.3258353592415437,0.0,135_top_l,False,,,3.8586078999796882,True,"[0.3258353592415437, 0.3258353592415437, 0.3258353592415437]",True,False,lighter,,0.5324976000702009,right,left,"(0, 0)","(0, 0)","(0, 0)","(1, 1)","(0, 0)","(0, 0)","(1, 0)","(0, 1)"
interactor,285,9.319642211525187,0.07711246307317753,-0.335,45_top_u,False,,,3.8576860999455675,True,"[-0.2578875369268225, -0.2578875369268225, -0.2578875369268225]",True,False,darker,True,0.5181559000629932,down,up,"(1, 1)","(0, 0)","(0, 0)","(0, 0)","(0, 1)","(0, 0)","(0, 0)","(1, 0)"
interactor,286,9.167866216627973,0.1983552231641078,0.0,45_top_r,True,3.5745148001005873,,3.840379500063136,True,"[0.1983552231641078, 0.1983552231641078, 0.1983552231641078]",False,True,lighter,,0.400928599992767,left,down,"(0, 0)","(1, 0)","(0, 1)","(0, 0)","(0, 0)","(0, 0)","(1, 1)","(0, 0)"
interactor,287,9.288134134460284,0.0747588826430626,0.0,135_top_l,True,3.573699700064026,,3.8417833000421524,True,"[0.0747588826430626, 0.0747588826430626, 0.0747588826430626]",False,True,lighter,,0.41720199992414564,right,down,"(0, 0)","(0, 0)","(0, 1)","(1, 0)","(0, 0)","(0, 0)","(1, 1)","(0, 0)"
interactor,288,9.79725584521147,0.1356284200897784,-0.168,135_top_l,True,3.5734642000170425,,3.840515000047162,True,"[-0.032371579910221604, -0.032371579910221604, -0.032371579910221604]",False,True,lighter,False,0.5003294999478385,right,down,"(0, 0)","(0, 0)","(0, 1)","(1, 0)","(0, 0)","(0, 0)","(1, 1)","(0, 0)"
empty,289,9.590526273738359,-0.049265119710896366,0.0,none_l,True,3.576081300037913,left,3.8421804000390694,True,"[-0.049265119710896366, -0.049265119710896366, -0.049265119710896366]",False,False,lighter,,0.5492383999517187,right,down,"(0, 0)","(0, 0)","(0, 1)","(1, 0)","(0, 0)","(0, 0)","(0, 1)","(1, 0)"
interactor,290,9.357534227793268,-0.10640835809826812,0.0,135_top_u,False,,,3.8568867999128997,True,"[-0.10640835809826812, -0.10640835809826812, -0.10640835809826812]",True,False,darker,,0.6007852000184357,down,up,"(1, 1)","(0, 0)","(0, 0)","(0, 0)","(0, 1)","(1, 0)","(0, 0)","(0, 0)"
empty,291,9.185038492290207,0.17801029390193035,0.335,none_u,True,3.5761932999594137,right,3.8421994999516755,True,"[0.5130102939019303, 0.5130102939019303, 0.5130102939019303]",False,False,lighter,True,0.45052219997160137,down,right,"(1, 0)","(0, 1)","(0, 0)","(0, 0)","(1, 0)","(0, 1)","(0, 0)","(0, 0)"
interactor,292,9.548545575072547,0.5600167891105635,0.0,45_top_r,True,3.5728989000199363,,3.8412108999909833,True,"[0.5600167891105635, 0.5600167891105635, 0.5600167891105635]",False,True,lighter,,0.4497408999595791,left,down,"(0, 0)","(1, 0)","(0, 1)","(0, 0)","(0, 0)","(0, 0)","(1, 1)","(0, 0)"
empty,293,9.329025882667374,0.29947232750503516,-0.335,none_d,False,,,3.857131800032221,True,"[-0.03552767249496486, -0.03552767249496486, -0.03552767249496486]",True,True,darker,True,0.5508684000233188,up,down,"(0, 0)","(0, 0)","(1, 1)","(0, 0)","(0, 0)","(0, 0)","(1, 1)","(0, 0)"
empty,294,9.214301705100807,0.29137415425027935,0.0,none_l,False,,,3.8581840000115335,True,"[0.29137415425027935, 0.29137415425027935, 0.29137415425027935]",True,True,lighter,,0.5161578999832273,right,left,"(0, 0)","(0, 0)","(0, 0)","(1, 1)","(0, 0)","(0, 0)","(0, 0)","(1, 1)"
interactor,295,9.171346123403456,0.11672167710280872,0.0,135_bottom_r,True,3.5734257999574766,,3.8407169999554753,True,"[0.11672167710280872, 0.11672167710280872, 0.11672167710280872]",False,True,lighter,,0.4503141000168398,left,up,"(0, 1)","(1, 0)","(0, 0)","(0, 0)","(1, 1)","(0, 0)","(0, 0)","(0, 0)"
empty,296,9.228180572199017,0.22011767096379048,-0.168,none_d,False,,,3.8575353999622166,True,"[0.05211767096379047, 0.05211767096379047, 0.05211767096379047]",True,True,lighter,False,0.383286299998872,up,down,"(0, 0)","(0, 0)","(1, 1)","(0, 0)","(0, 0)","(0, 0)","(1, 1)","(0, 0)"
interactor,297,9.44049986047343,0.17039888265260206,-0.335,45_bottom_l,False,,,3.857949099969119,True,"[-0.16460111734739796, -0.16460111734739796, -0.16460111734739796]",True,False,darker,True,0.5661762000527233,right,left,"(0, 0)","(0, 0)","(0, 0)","(1, 1)","(1, 0)","(0, 0)","(0, 0)","(0, 1)"
empty,298,8.916398231303825,0.5748366798272418,0.0,none_r,False,,,3.8573046000674367,True,"[0.5748366798272418, 0.5748366798272418, 0.5748366798272418]",True,True,lighter,,0.43361670000012964,left,right,"(0, 0)","(1, 1)","(0, 0)","(0, 0)","(0, 0)","(1, 1)","(0, 0)","(0, 0)"
empty,299,9.310896657404237,0.16550087569582686,-0.335,none_u,True,3.5753983999602497,left,3.842619000002742,True,"[-0.16949912430417316, -0.16949912430417316, -0.16949912430417316]",False,False,darker,True,0.6327581000514328,down,left,"(1, 0)","(0, 0)","(0, 0)","(0, 1)","(1, 0)","(0, 0)","(0, 0)","(0, 1)"
empty,300,9.907595201231489,0.21369592328095438,0.168,none_l,False,,,3.8568095000227913,True,"[0.38169592328095436, 0.38169592328095436, 0.38169592328095436]",True,True,lighter,True,0.568442799965851,right,left,"(0, 0)","(0, 0)","(0, 0)","(1, 1)","(0, 0)","(0, 0)","(0, 0)","(1, 1)"
empty,301,9.307117217164796,-0.18162558571447604,0.0,none_r,False,,,3.858786200056784,True,"[-0.18162558571447604, -0.18162558571447604, -0.18162558571447604]",True,True,darker,,0.6168230000184849,left,right,"(0, 0)","(1, 1)","(0, 0)","(0, 0)","(0, 0)","(1, 1)","(0, 0)","(0, 0)"
empty,302,9.62423441319201,0.035357368692241056,0.335,none_u,True,3.5748091000132263,right,3.842688300064765,True,"[0.37035736869224106, 0.37035736869224106, 0.37035736869224106]",False,False,lighter,True,0.44903399993199855,down,right,"(1, 0)","(0, 1)","(0, 0)","(0, 0)","(1, 0)","(0, 1)","(0, 0)","(0, 0)"
interactor,303,9.172912236986898,-0.06283373148511168,0.168,135_top_u,False,,,3.858003699919209,True,"[0.10516626851488833, 0.10516626851488833, 0.10516626851488833]",True,False,lighter,True,0.366959200007841,down,up,"(1, 1)","(0, 0)","(0, 0)","(0, 0)","(0, 1)","(1, 0)","(0, 0)","(0, 0)"
interactor,304,9.496375970660297,0.3104215848638424,0.168,45_bottom_l,True,3.573036600020714,,3.841348599991761,True,"[0.47842158486384245, 0.47842158486384245, 0.47842158486384245]",False,True,lighter,True,0.43378399999346584,right,up,"(0, 1)","(0, 0)","(0, 0)","(1, 0)","(1, 1)","(0, 0)","(0, 0)","(0, 0)"
interactor,305,9.596263999597046,-0.018557156351437787,-0.335,45_bottom_d,False,,,3.859394499915652,True,"[-0.3535571563514378, -0.3535571563514378, -0.3535571563514378]",True,False,darker,True,0.5334598000627011,up,down,"(0, 0)","(0, 0)","(1, 1)","(0, 0)","(0, 0)","(1, 0)","(0, 1)","(0, 0)"
interactor,306,9.76475317785901,0.17572797694113534,0.0,45_top_u,True,3.5753947999328375,,3.841499299975112,True,"[0.17572797694113534, 0.17572797694113534, 0.17572797694113534]",False,True,lighter,,0.5000236999476328,down,left,"(1, 0)","(0, 0)","(0, 0)","(0, 1)","(0, 0)","(0, 0)","(0, 0)","(1, 1)"
empty,307,9.577980698903346,0.18895668798042406,0.335,none_l,True,3.574636699981056,left,3.8406318000052124,True,"[0.523956687980424, 0.523956687980424, 0.523956687980424]",False,False,lighter,True,0.43434099992737174,right,down,"(0, 0)","(0, 0)","(0, 1)","(1, 0)","(0, 0)","(0, 0)","(0, 1)","(1, 0)"
empty,308,9.552953338670001,0.3109634668517201,-0.335,none_d,True,3.5744971999665722,right,3.8415101000573486,True,"[-0.024036533148279915, -0.024036533148279915, -0.024036533148279915]",False,False,darker,True,0.833462999900803,up,left,"(0, 0)","(0, 0)","(1, 0)","(0, 1)","(0, 0)","(0, 0)","(1, 0)","(0, 1)"
interactor,309,9.391592825746256,0.22688399290521621,-0.168,135_top_l,True,3.57394219993148,,3.8410515999421477,True,"[0.058883992905216204, 0.058883992905216204, 0.058883992905216204]",False,True,lighter,False,0.45212190004531294,right,down,"(0, 0)","(0, 0)","(0, 1)","(1, 0)","(0, 0)","(0, 0)","(1, 1)","(0, 0)"
empty,310,9.660470564221658,-0.26503303812073986,-0.168,none_u,False,,,3.8574320999905467,True,"[-0.4330330381207399, -0.4330330381207399, -0.4330330381207399]",True,True,darker,True,0.501560700009577,down,up,"(1, 1)","(0, 0)","(0, 0)","(0, 0)","(1, 1)","(0, 0)","(0, 0)","(0, 0)"
empty,311,9.586384943415055,-0.08821156621943133,-0.335,none_d,False,,,3.8589462999952957,True,"[-0.42321156621943135, -0.42321156621943135, -0.42321156621943135]",True,True,darker,True,0.5341754000401124,up,down,"(0, 0)","(0, 0)","(1, 1)","(0, 0)","(0, 0)","(0, 0)","(1, 1)","(0, 0)"
interactor,312,9.277536769183092,-0.007939709691203556,-0.335,135_top_u,True,3.5756786999991164,,3.842875999980606,True,"[-0.3429397096912036, -0.3429397096912036, -0.3429397096912036]",False,True,darker,True,0.6838225999381393,down,right,"(1, 0)","(0, 1)","(0, 0)","(0, 0)","(0, 0)","(1, 1)","(0, 0)","(0, 0)"
empty,313,9.160394498788479,-0.03141205769343944,0.168,none_l,True,3.573620400042273,left,3.840676699997857,True,"[0.13658794230656057, 0.13658794230656057, 0.13658794230656057]",False,False,lighter,True,0.4000814000610262,right,down,"(0, 0)","(0, 0)","(0, 1)","(1, 0)","(0, 0)","(0, 0)","(0, 1)","(1, 0)"
interactor,314,9.115521731617294,0.14912375550423132,0.335,135_top_u,True,3.5751429999945685,,3.841461900039576,True,"[0.48412375550423137, 0.48412375550423137, 0.48412375550423137]",False,True,lighter,True,0.4003880999516696,down,right,"(1, 0)","(0, 1)","(0, 0)","(0, 0)","(0, 0)","(1, 1)","(0, 0)","(0, 0)"
empty,315,9.977723464102077,0.03180196969767568,0.168,none_u,True,3.573616400011815,right,3.8586128000169992,True,"[0.1998019696976757, 0.1998019696976757, 0.1998019696976757]",False,False,lighter,True,0.4156852000160143,down,right,"(1, 0)","(0, 1)","(0, 0)","(0, 0)","(1, 0)","(0, 1)","(0, 0)","(0, 0)"
empty,316,9.200753567638687,0.053250571751455214,0.0,none_d,False,,,3.8595432000001892,True,"[0.053250571751455214, 0.053250571751455214, 0.053250571751455214]",True,True,lighter,,0.4328636999707669,up,down,"(0, 0)","(0, 0)","(1, 1)","(0, 0)","(0, 0)","(0, 0)","(1, 1)","(0, 0)"
empty,317,9.561830739662149,0.16497040165172167,-0.168,none_u,True,3.5745175998890772,right,3.8418738999171183,True,"[-0.003029598348278345, -0.003029598348278345, -0.003029598348278345]",False,False,lighter,False,0.43404199997894466,down,right,"(1, 0)","(0, 1)","(0, 0)","(0, 0)","(1, 0)","(0, 1)","(0, 0)","(0, 0)"
empty,318,9.360709388876941,0.14048538073756994,0.168,none_d,True,3.5746767999371514,right,3.8406810999149457,True,"[0.3084853807375699, 0.3084853807375699, 0.3084853807375699]",False,False,lighter,True,0.5503636000212282,up,left,"(0, 0)","(0, 0)","(1, 0)","(0, 1)","(0, 0)","(0, 0)","(1, 0)","(0, 1)"
interactor,319,9.18203265235134,0.03543532894670018,0.168,135_bottom_r,True,3.5755417000036687,,3.8417534000473097,True,"[0.2034353289467002, 0.2034353289467002, 0.2034353289467002]",False,True,lighter,True,0.41626139997970313,left,up,"(0, 1)","(1, 0)","(0, 0)","(0, 0)","(1, 1)","(0, 0)","(0, 0)","(0, 0)"
interactor,320,9.739424268917993,0.3492265609598125,0.335,135_bottom_r,False,,,3.8577435000333935,True,"[0.6842265609598126, 0.6842265609598126, 0.6842265609598126]",True,False,lighter,True,0.43368280003778636,left,right,"(0, 0)","(1, 1)","(0, 0)","(0, 0)","(1, 0)","(0, 1)","(0, 0)","(0, 0)"
empty,321,9.728996153687731,-0.0066935090562174615,0.335,none_l,False,,,3.859468700014986,True,"[0.32830649094378256, 0.32830649094378256, 0.32830649094378256]",True,True,lighter,True,0.44979969994165003,right,left,"(0, 0)","(0, 0)","(0, 0)","(1, 1)","(0, 0)","(0, 0)","(0, 0)","(1, 1)"
interactor,322,9.235774806359784,0.5357922716496603,-0.335,45_top_r,False,,,3.8579359999857843,True,"[0.20079227164966024, 0.20079227164966024, 0.20079227164966024]",True,False,lighter,False,0.6841083000181243,left,right,"(0, 0)","(1, 1)","(0, 0)","(0, 0)","(0, 0)","(0, 1)","(1, 0)","(0, 0)"
empty,323,9.036578452801729,0.6451413993233313,0.168,none_u,True,3.5740586000028998,right,3.839881299994886,True,"[0.8131413993233313, 0.8131413993233313, 0.8131413993233313]",False,False,lighter,True,0.4853220999939367,down,right,"(1, 0)","(0, 1)","(0, 0)","(0, 0)","(1, 0)","(0, 1)","(0, 0)","(0, 0)"
interactor,324,9.004430784162496,0.383347229028133,-0.335,135_top_u,False,,,3.858297299942933,True,"[0.04834722902813299, 0.04834722902813299, 0.04834722902813299]",True,False,darker,True,0.5677049000514671,down,up,"(1, 1)","(0, 0)","(0, 0)","(0, 0)","(0, 1)","(1, 0)","(0, 0)","(0, 0)"
interactor,325,9.070248144875634,0.03520935980158206,0.168,135_bottom_d,False,,,3.856467599980533,True,"[0.20320935980158206, 0.20320935980158206, 0.20320935980158206]",True,False,lighter,True,0.4014901000773534,up,down,"(0, 0)","(0, 0)","(1, 1)","(0, 0)","(0, 0)","(0, 0)","(0, 1)","(1, 0)"
empty,326,9.581821714751236,-0.007880419500757047,0.0,none_r,False,,,3.8578118999721482,True,"[-0.007880419500757047, -0.007880419500757047, -0.007880419500757047]",True,True,darker,,0.7167621999979019,left,right,"(0, 0)","(1, 1)","(0, 0)","(0, 0)","(0, 0)","(1, 1)","(0, 0)","(0, 0)"
interactor,327,9.424328829285667,0.16221621062188585,0.335,45_bottom_d,False,,,3.8586546999868006,True,"[0.49721621062188587, 0.49721621062188587, 0.49721621062188587]",True,False,lighter,True,0.45028559991624206,up,down,"(0, 0)","(0, 0)","(1, 1)","(0, 0)","(0, 0)","(1, 0)","(0, 1)","(0, 0)"
empty,328,9.816092655997283,-0.0014174716548167599,0.168,none_u,True,3.5747354000341147,right,3.858734600013122,True,"[0.16658252834518325, 0.16658252834518325, 0.16658252834518325]",False,False,lighter,True,0.41595769999548793,down,right,"(1, 0)","(0, 1)","(0, 0)","(0, 0)","(1, 0)","(0, 1)","(0, 0)","(0, 0)"
interactor,329,9.063376203935473,0.3421384033123522,-0.168,45_top_u,True,3.574192799977027,,3.8415058999089524,True,"[0.17413840331235217, 0.17413840331235217, 0.17413840331235217]",False,True,lighter,False,0.5663578000385314,down,left,"(1, 0)","(0, 0)","(0, 0)","(0, 1)","(0, 0)","(0, 0)","(0, 0)","(1, 1)"
empty,330,9.394426013159658,0.2205508644890692,-0.335,none_r,True,3.5753919000271708,right,3.8415105000603944,True,"[-0.11444913551093083, -0.11444913551093083, -0.11444913551093083]",False,False,lighter,False,0.41860709991306067,left,down,"(0, 0)","(1, 0)","(0, 1)","(0, 0)","(0, 0)","(1, 0)","(0, 1)","(0, 0)"
interactor,331,9.45749313126037,-0.07877049797513871,0.0,135_bottom_r,True,3.5756210999097675,,3.843093700008467,True,"[-0.07877049797513871, -0.07877049797513871, -0.07877049797513871]",False,True,darker,,0.7157200999790803,left,up,"(0, 1)","(1, 0)","(0, 0)","(0, 0)","(1, 1)","(0, 0)","(0, 0)","(0, 0)"
interactor,332,9.57692847400583,0.22615484596943147,0.0,45_bottom_d,False,,,3.858095800038427,True,"[0.22615484596943147, 0.22615484596943147, 0.22615484596943147]",True,False,lighter,,0.5335458999034017,up,down,"(0, 0)","(0, 0)","(1, 1)","(0, 0)","(0, 0)","(1, 0)","(0, 1)","(0, 0)"
interactor,333,9.29853277841142,0.12396765558002326,0.0,135_top_u,True,3.573235600022599,,3.840622500050813,True,"[0.12396765558002326, 0.12396765558002326, 0.12396765558002326]",False,True,lighter,,0.5341496999608353,down,right,"(1, 0)","(0, 1)","(0, 0)","(0, 0)","(0, 0)","(1, 1)","(0, 0)","(0, 0)"
empty,334,9.457616585264356,0.3267026405597704,-0.168,none_l,False,,,3.8584751000162214,True,"[0.15870264055977037, 0.15870264055977037, 0.15870264055977037]",True,True,lighter,False,0.5164925999706611,right,left,"(0, 0)","(0, 0)","(0, 0)","(1, 1)","(0, 0)","(0, 0)","(0, 0)","(1, 1)"
interactor,335,9.759168140869946,0.2851274516862885,0.0,45_bottom_l,False,,,3.858442100114189,True,"[0.2851274516862885, 0.2851274516862885, 0.2851274516862885]",True,False,lighter,,0.4332248999271542,right,left,"(0, 0)","(0, 0)","(0, 0)","(1, 1)","(1, 0)","(0, 0)","(0, 0)","(0, 1)"
interactor,336,9.37658564721972,-0.1794839791727563,0.335,135_top_l,True,3.572977799922228,,3.8403979999711737,True,"[0.15551602082724372, 0.15551602082724372, 0.15551602082724372]",False,True,lighter,True,0.4496084999991581,right,down,"(0, 0)","(0, 0)","(0, 1)","(1, 0)","(0, 0)","(0, 0)","(1, 1)","(0, 0)"
