trial_type,trial,ball_speed,ball_start_color,ball_color_change,interactor,bounce,bounce_moment,random_bounce_direction,target_onset,ball_change,target_color,abs_congruent,sim_congruent,response,accuracy,rt,start_pos,end_pos,abs_rfup,abs_rfright,abs_rfdown,abs_rfleft,sim_rfup,sim_rfright,sim_rfdown,sim_rfleft
empty,1,9.322101320663366,0.2167111733755615,0.0,none_l,False,,,3.9041241001104936,True,"[0.2167111733755615, 0.2167111733755615, 0.2167111733755615]",True,True,lighter,,1.1174457999877632,right,left,"(0, 0)","(0, 0)","(0, 0)","(1, 1)","(0, 0)","(0, 0)","(0, 0)","(1, 1)"
interactor,2,9.778238272814823,0.43755270296802007,-0.168,135_bottom_r,False,,,3.8574624999891967,True,"[0.26955270296802003, 0.26955270296802003, 0.26955270296802003]",True,False,darker,True,1.05084290006198,left,right,"(0, 0)","(1, 1)","(0, 0)","(0, 0)","(1, 0)","(0, 1)","(0, 0)","(0, 0)"
empty,3,9.521908679431792,0.3017780710685678,0.335,none_d,False,,,3.8663276999723166,True,"[0.6367780710685678, 0.6367780710685678, 0.6367780710685678]",True,True,lighter,True,1.1005900000454858,up,down,"(0, 0)","(0, 0)","(1, 1)","(0, 0)","(0, 0)","(0, 0)","(1, 1)","(0, 0)"
interactor,4,9.12698466112707,0.33443223547241496,-0.168,135_top_l,False,,,3.866652900003828,True,"[0.16643223547241495, 0.16643223547241495, 0.16643223547241495]",True,False,darker,True,0.9003542000427842,right,left,"(0, 0)","(0, 0)","(0, 0)","(1, 1)","(0, 0)","(0, 0)","(1, 0)","(0, 1)"
interactor,5,9.888909056709291,-0.17737570121994425,0.168,135_bottom_d,False,,,3.866576600004919,True,"[-0.009375701219944244, -0.009375701219944244, -0.009375701219944244]",True,False,lighter,True,1.5996267000446096,up,down,"(0, 0)","(0, 0)","(1, 1)","(0, 0)","(0, 0)","(0, 0)","(0, 1)","(1, 0)"
interactor,6,9.120086106285596,0.2505992668627234,0.335,45_bottom_l,False,,,3.8645471000345424,True,"[0.5855992668627235, 0.5855992668627235, 0.5855992668627235]",True,False,lighter,True,0.9510727999731898,right,left,"(0, 0)","(0, 0)","(0, 0)","(1, 1)","(1, 0)","(0, 0)","(0, 0)","(0, 1)"
empty,7,9.176853680783728,0.28271446109569087,-0.168,none_l,False,,,3.865351999993436,True,"[0.11471446109569086, 0.11471446109569086, 0.11471446109569086]",True,True,darker,True,1.3014301999937743,right,left,"(0, 0)","(0, 0)","(0, 0)","(1, 1)","(0, 0)","(0, 0)","(0, 0)","(1, 1)"
interactor,8,9.490628767299373,0.1388048493575563,0.0,45_bottom_d,True,3.5745802000164986,,3.8428805000148714,True,"[0.1388048493575563, 0.1388048493575563, 0.1388048493575563]",False,True,lighter,,1.3658903999021277,up,right,"(0, 0)","(0, 1)","(1, 0)","(0, 0)","(0, 0)","(1, 1)","(0, 0)","(0, 0)"
interactor,9,9.762945139484096,-0.2832300673218695,0.168,45_top_r,True,3.57319040002767,,3.8416373999789357,True,"[-0.1152300673218695, -0.1152300673218695, -0.1152300673218695]",False,True,darker,False,1.2500960000324994,left,down,"(0, 0)","(1, 0)","(0, 1)","(0, 0)","(0, 0)","(0, 0)","(1, 1)","(0, 0)"
interactor,10,9.48358821306135,0.4570330193802076,0.0,45_top_u,True,3.5743091999320313,,3.8427192999515682,True,"[0.4570330193802076, 0.4570330193802076, 0.4570330193802076]",False,True,lighter,,1.2654149000300094,down,left,"(1, 0)","(0, 0)","(0, 0)","(0, 1)","(0, 0)","(0, 0)","(0, 0)","(1, 1)"
interactor,11,9.374512430447552,-0.039697811519618736,0.335,45_bottom_d,False,,,3.8585124000674114,True,"[0.29530218848038126, 0.29530218848038126, 0.29530218848038126]",True,False,lighter,True,0.9505839999765158,up,down,"(0, 0)","(0, 0)","(1, 1)","(0, 0)","(0, 0)","(1, 0)","(0, 1)","(0, 0)"
empty,12,9.400583793576201,0.35410111749557727,-0.335,none_u,True,3.5838523000711575,left,3.848928000079468,True,"[0.019101117495577247, 0.019101117495577247, 0.019101117495577247]",False,False,darker,True,1.0503467000089586,down,left,"(1, 0)","(0, 0)","(0, 0)","(0, 1)","(1, 0)","(0, 0)","(0, 0)","(0, 1)"
empty,13,9.475234269437175,0.13444511242609697,0.168,none_l,True,3.584335600025952,left,3.849357399973087,True,"[0.30244511242609695, 0.30244511242609695, 0.30244511242609695]",False,False,lighter,True,0.5846118000335991,right,down,"(0, 0)","(0, 0)","(0, 1)","(1, 0)","(0, 0)","(0, 0)","(0, 1)","(1, 0)"
interactor,14,9.559545048001148,0.2039778486485972,0.335,135_top_u,False,,,3.8568067000014707,True,"[0.5389778486485972, 0.5389778486485972, 0.5389778486485972]",True,False,darker,False,1.1834702000487596,down,up,"(1, 1)","(0, 0)","(0, 0)","(0, 0)","(0, 1)","(1, 0)","(0, 0)","(0, 0)"
empty,15,9.798884400405699,0.17896020562006376,0.0,none_r,False,,,3.859960600035265,True,"[0.17896020562006376, 0.17896020562006376, 0.17896020562006376]",True,True,darker,,1.26725949998945,left,right,"(0, 0)","(1, 1)","(0, 0)","(0, 0)","(0, 0)","(1, 1)","(0, 0)","(0, 0)"
interactor,16,9.66531891476587,0.3638864591017385,0.0,45_top_r,False,,,3.8579718000255525,True,"[0.3638864591017385, 0.3638864591017385, 0.3638864591017385]",True,False,lighter,,0.7175190000561997,left,right,"(0, 0)","(1, 1)","(0, 0)","(0, 0)","(0, 0)","(0, 1)","(1, 0)","(0, 0)"
interactor,17,8.88212471470227,-0.12729399131150873,0.0,135_bottom_d,True,3.5754466999787837,,3.841787499957718,True,"[-0.12729399131150873, -0.12729399131150873, -0.12729399131150873]",False,True,darker,,0.8670517000136897,up,left,"(0, 0)","(0, 0)","(1, 0)","(0, 1)","(0, 0)","(0, 0)","(0, 0)","(1, 1)"
interactor,18,9.58445370222527,0.0245557846369589,-0.168,135_bottom_d,False,,,3.8646525000222027,True,"[-0.1434442153630411, -0.1434442153630411, -0.1434442153630411]",True,False,darker,True,0.8349862999748439,up,down,"(0, 0)","(0, 0)","(1, 1)","(0, 0)","(0, 0)","(0, 0)","(0, 1)","(1, 0)"
empty,19,9.338606873585796,0.027440035302622123,0.168,none_r,True,3.5833972999826074,left,3.8505077000008896,True,"[0.19544003530262213, 0.19544003530262213, 0.19544003530262213]",False,False,lighter,True,0.6332006000448018,left,up,"(0, 1)","(1, 0)","(0, 0)","(0, 0)","(0, 1)","(1, 0)","(0, 0)","(0, 0)"
empty,20,9.701549002670097,0.11693067809048394,0.335,none_l,True,3.5838432000018656,left,3.8506702000740916,True,"[0.45193067809048393, 0.45193067809048393, 0.45193067809048393]",False,False,lighter,True,0.6821307999780402,right,down,"(0, 0)","(0, 0)","(0, 1)","(1, 0)","(0, 0)","(0, 0)","(0, 1)","(1, 0)"
interactor,21,9.775042301285355,0.29755921916645056,0.168,135_bottom_r,True,3.581993200001307,,3.8493420999730006,True,"[0.4655592191664506, 0.4655592191664506, 0.4655592191664506]",False,True,,False,,left,up,"(0, 1)","(1, 0)","(0, 0)","(0, 0)","(1, 1)","(0, 0)","(0, 0)","(0, 0)"
interactor,22,9.557858107330697,0.20520959534270874,0.335,135_top_u,True,3.581885899999179,,3.8483687000116333,True,"[0.5402095953427087, 0.5402095953427087, 0.5402095953427087]",False,True,lighter,True,0.6332469000481069,down,right,"(1, 0)","(0, 1)","(0, 0)","(0, 0)","(0, 0)","(1, 1)","(0, 0)","(0, 0)"
interactor,23,9.83500150525488,0.2597459670100811,-0.168,45_bottom_d,False,,,3.8644695000257343,True,"[0.09174596701008111, 0.09174596701008111, 0.09174596701008111]",True,False,darker,True,0.5680667000124231,up,down,"(0, 0)","(0, 0)","(1, 1)","(0, 0)","(0, 0)","(1, 0)","(0, 1)","(0, 0)"
interactor,24,8.970467803653976,-0.019752988300102137,0.168,45_top_u,False,,,3.857396899955347,True,"[0.14824701169989787, 0.14824701169989787, 0.14824701169989787]",True,False,darker,False,0.8335647000931203,down,up,"(1, 1)","(0, 0)","(0, 0)","(0, 0)","(0, 1)","(0, 0)","(0, 0)","(1, 0)"
empty,25,9.158906837246958,0.21822800585074387,-0.335,none_u,True,3.5831167999422178,left,3.8503336999565363,True,"[-0.11677199414925615, -0.11677199414925615, -0.11677199414925615]",False,False,darker,True,0.799950800021179,down,left,"(1, 0)","(0, 0)","(0, 0)","(0, 1)","(1, 0)","(0, 0)","(0, 0)","(0, 1)"
empty,26,9.348960974488334,0.34698265591540745,0.168,none_r,False,,,3.865533799980767,True,"[0.5149826559154075, 0.5149826559154075, 0.5149826559154075]",True,True,lighter,True,0.5334813999943435,left,right,"(0, 0)","(1, 1)","(0, 0)","(0, 0)","(0, 0)","(1, 1)","(0, 0)","(0, 0)"
empty,27,9.33157959866071,-0.16857314268496373,-0.168,none_l,True,3.574044600012712,right,3.8396229000063613,True,"[-0.33657314268496374, -0.33657314268496374, -0.33657314268496374]",False,False,darker,True,0.5686984000494704,right,up,"(0, 1)","(0, 0)","(0, 0)","(1, 0)","(0, 1)","(0, 0)","(0, 0)","(1, 0)"
interactor,28,9.719129178835045,0.09204354286826268,0.0,135_top_l,False,,,3.8578836999367923,True,"[0.09204354286826268, 0.09204354286826268, 0.09204354286826268]",True,False,darker,,0.7686135000549257,right,left,"(0, 0)","(0, 0)","(0, 0)","(1, 1)","(0, 0)","(0, 0)","(1, 0)","(0, 1)"
empty,29,9.274616044394394,0.2670560594570406,-0.335,none_u,False,,,3.866939499974251,True,"[-0.06794394054295944, -0.06794394054295944, -0.06794394054295944]",True,True,darker,True,0.6328548000892624,down,up,"(1, 1)","(0, 0)","(0, 0)","(0, 0)","(1, 1)","(0, 0)","(0, 0)","(0, 0)"
interactor,30,9.216576592132974,0.48216796351988456,0.0,45_top_r,True,3.573625999968499,,3.841802699957043,True,"[0.48216796351988456, 0.48216796351988456, 0.48216796351988456]",False,True,lighter,,0.6169146000174806,left,down,"(0, 0)","(1, 0)","(0, 1)","(0, 0)","(0, 0)","(0, 0)","(1, 1)","(0, 0)"
empty,31,9.398550837909845,0.1450048817311635,0.335,none_u,False,,,3.8676435999805108,True,"[0.4800048817311635, 0.4800048817311635, 0.4800048817311635]",True,True,lighter,True,0.36714690004009753,down,up,"(1, 1)","(0, 0)","(0, 0)","(0, 0)","(1, 1)","(0, 0)","(0, 0)","(0, 0)"
interactor,32,9.646331616176475,0.07031151270122121,0.168,135_top_l,False,,,3.8582374999532476,True,"[0.23831151270122122, 0.23831151270122122, 0.23831151270122122]",True,False,darker,False,0.5837885000510141,right,left,"(0, 0)","(0, 0)","(0, 0)","(1, 1)","(0, 0)","(0, 0)","(1, 0)","(0, 1)"
interactor,33,9.742930901753429,0.14158524147363977,-0.168,135_top_u,False,,,3.8652438999852166,True,"[-0.026414758526360244, -0.026414758526360244, -0.026414758526360244]",True,False,darker,True,0.7343653999269009,down,up,"(1, 1)","(0, 0)","(0, 0)","(0, 0)","(0, 1)","(1, 0)","(0, 0)","(0, 0)"
empty,34,9.457614248910037,-0.041808600077437724,0.335,none_u,False,,,3.8580124999862164,True,"[0.29319139992256227, 0.29319139992256227, 0.29319139992256227]",True,True,darker,False,0.8169105999404564,down,up,"(1, 1)","(0, 0)","(0, 0)","(0, 0)","(1, 1)","(0, 0)","(0, 0)","(0, 0)"
interactor,35,9.265531072287878,0.5177953400815776,0.335,45_bottom_d,True,3.583266499917954,,3.8504696999443695,True,"[0.8527953400815775, 0.8527953400815775, 0.8527953400815775]",False,True,lighter,True,0.5994075000053272,up,right,"(0, 0)","(0, 1)","(1, 0)","(0, 0)","(0, 0)","(1, 1)","(0, 0)","(0, 0)"
interactor,36,9.725594310086914,0.4131765134844646,0.168,45_bottom_l,False,,,3.8673417000100017,True,"[0.5811765134844646, 0.5811765134844646, 0.5811765134844646]",True,False,lighter,True,0.816385900019668,right,left,"(0, 0)","(0, 0)","(0, 0)","(1, 1)","(1, 0)","(0, 0)","(0, 0)","(0, 1)"
empty,37,9.154932479194615,0.06414027516666423,0.335,none_d,True,3.5830386999296024,right,3.84995149995666,True,"[0.3991402751666643, 0.3991402751666643, 0.3991402751666643]",False,False,lighter,True,0.616787499981001,up,left,"(0, 0)","(0, 0)","(1, 0)","(0, 1)","(0, 0)","(0, 0)","(1, 0)","(0, 1)"
empty,38,9.88021850360854,0.1363432483051321,0.168,none_r,False,,,3.8587890999624506,True,"[0.3043432483051321, 0.3043432483051321, 0.3043432483051321]",True,True,lighter,True,0.4997908000368625,left,right,"(0, 0)","(1, 1)","(0, 0)","(0, 0)","(0, 0)","(1, 1)","(0, 0)","(0, 0)"
empty,39,9.679673550481468,-0.18301187513316983,-0.335,none_l,False,,,3.8589397000614554,True,"[-0.5180118751331698, -0.5180118751331698, -0.5180118751331698]",True,True,darker,True,0.4990768999559805,right,left,"(0, 0)","(0, 0)","(0, 0)","(1, 1)","(0, 0)","(0, 0)","(0, 0)","(1, 1)"
empty,40,9.746003705988612,0.27855160709372506,0.335,none_l,True,3.574259299901314,left,3.8411429999396205,True,"[0.613551607093725, 0.613551607093725, 0.613551607093725]",False,False,lighter,True,0.5172888999804854,right,down,"(0, 0)","(0, 0)","(0, 1)","(1, 0)","(0, 0)","(0, 0)","(0, 1)","(1, 0)"
interactor,41,9.439111926886676,0.4726978698073129,-0.335,135_bottom_d,False,,,3.857942800037563,True,"[0.13769786980731286, 0.13769786980731286, 0.13769786980731286]",True,False,space,,,up,down,"(0, 0)","(0, 0)","(1, 1)","(0, 0)","(0, 0)","(0, 0)","(0, 1)","(1, 0)"
empty,42,9.855521498682982,-0.007635467679835056,-0.168,none_u,False,,,3.8590797999640927,True,"[-0.17563546767983507, -0.17563546767983507, -0.17563546767983507]",True,True,darker,True,0.5163084999658167,down,up,"(1, 1)","(0, 0)","(0, 0)","(0, 0)","(1, 1)","(0, 0)","(0, 0)","(0, 0)"
empty,43,9.65011193274505,0.2965630053130289,0.168,none_d,False,,,3.8664848000044003,True,"[0.46456300531302896, 0.46456300531302896, 0.46456300531302896]",True,True,lighter,True,0.5660895999753848,up,down,"(0, 0)","(0, 0)","(1, 1)","(0, 0)","(0, 0)","(0, 0)","(1, 1)","(0, 0)"
empty,44,9.494541877274987,0.04521085518091189,-0.168,none_r,False,,,3.8573772000381723,True,"[-0.12278914481908812, -0.12278914481908812, -0.12278914481908812]",True,True,darker,True,0.566213299985975,left,right,"(0, 0)","(1, 1)","(0, 0)","(0, 0)","(0, 0)","(1, 1)","(0, 0)","(0, 0)"
interactor,45,9.407059543878564,0.3719706328790062,-0.168,135_bottom_d,True,3.583887599990703,,3.851264600059949,True,"[0.20397063287900621, 0.20397063287900621, 0.20397063287900621]",False,True,lighter,False,0.8175786000210792,up,left,"(0, 0)","(0, 0)","(1, 0)","(0, 1)","(0, 0)","(0, 0)","(0, 0)","(1, 1)"
empty,46,9.362096332668687,0.1516907688092254,-0.168,none_u,False,,,3.857686199946329,True,"[-0.016309231190774598, -0.016309231190774598, -0.016309231190774598]",True,True,darker,True,0.6670778000261635,down,up,"(1, 1)","(0, 0)","(0, 0)","(0, 0)","(1, 1)","(0, 0)","(0, 0)","(0, 0)"
empty,47,9.394952894215548,0.04441310266093498,0.168,none_l,True,3.5836090000811964,left,3.850702500087209,True,"[0.212413102660935, 0.212413102660935, 0.212413102660935]",False,False,lighter,True,0.5671129999682307,right,down,"(0, 0)","(0, 0)","(0, 1)","(1, 0)","(0, 0)","(0, 0)","(0, 1)","(1, 0)"
interactor,48,9.655898336493005,0.355350558673899,0.168,45_bottom_d,True,3.581898699980229,,3.850025999941863,True,"[0.523350558673899, 0.523350558673899, 0.523350558673899]",False,True,lighter,True,0.5337039000587538,up,right,"(0, 0)","(0, 1)","(1, 0)","(0, 0)","(0, 0)","(1, 1)","(0, 0)","(0, 0)"
interactor,49,9.351345161820651,0.11432653237045814,0.335,45_bottom_l,False,,,3.8576051000272855,True,"[0.44932653237045816, 0.44932653237045816, 0.44932653237045816]",True,False,lighter,True,0.46748350001871586,right,left,"(0, 0)","(0, 0)","(0, 0)","(1, 1)","(1, 0)","(0, 0)","(0, 0)","(0, 1)"
empty,50,9.249842957097004,0.481688849887559,-0.335,none_d,False,,,3.866019499953836,True,"[0.14668884988755898, 0.14668884988755898, 0.14668884988755898]",True,True,darker,True,0.5840080000925809,up,down,"(0, 0)","(0, 0)","(1, 1)","(0, 0)","(0, 0)","(0, 0)","(1, 1)","(0, 0)"
empty,51,9.100200038480528,-0.11602682070954792,-0.335,none_l,False,,,3.866377400001511,True,"[-0.4510268207095479, -0.4510268207095479, -0.4510268207095479]",True,True,space,,,right,left,"(0, 0)","(0, 0)","(0, 0)","(1, 1)","(0, 0)","(0, 0)","(0, 0)","(1, 1)"
empty,52,9.627251912145114,-0.11704479935082049,-0.168,none_d,True,3.5754981000209227,right,3.842642799951136,True,"[-0.2850447993508205, -0.2850447993508205, -0.2850447993508205]",False,False,darker,True,0.8670348000014201,up,left,"(0, 0)","(0, 0)","(1, 0)","(0, 1)","(0, 0)","(0, 0)","(1, 0)","(0, 1)"
interactor,53,9.770431407481887,0.3705713722573165,-0.335,45_bottom_d,False,,,3.866794899920933,True,"[0.03557137225731649, 0.03557137225731649, 0.03557137225731649]",True,False,darker,True,0.5510135000804439,up,down,"(0, 0)","(0, 0)","(1, 1)","(0, 0)","(0, 0)","(1, 0)","(0, 1)","(0, 0)"
empty,54,9.487371803735739,-0.24694649242370856,0.168,none_r,False,,,3.8582680000690743,True,"[-0.07894649242370855, -0.07894649242370855, -0.07894649242370855]",True,True,darker,False,0.7337313999887556,left,right,"(0, 0)","(1, 1)","(0, 0)","(0, 0)","(0, 0)","(1, 1)","(0, 0)","(0, 0)"
interactor,55,9.171487871138153,-0.021669763342906573,-0.168,45_top_u,False,,,3.8679125999333337,True,"[-0.18966976334290658, -0.18966976334290658, -0.18966976334290658]",True,False,darker,True,0.5658018999965861,down,up,"(1, 1)","(0, 0)","(0, 0)","(0, 0)","(0, 1)","(0, 0)","(0, 0)","(1, 0)"
empty,56,9.65101688948067,0.3575963449461564,-0.168,none_r,False,,,3.8584104999899864,True,"[0.18959634494615638, 0.18959634494615638, 0.18959634494615638]",True,True,lighter,False,0.7330626000184566,left,right,"(0, 0)","(1, 1)","(0, 0)","(0, 0)","(0, 0)","(1, 1)","(0, 0)","(0, 0)"
empty,57,9.541476035519658,0.46847908148334705,0.335,none_r,False,,,3.8660175999393687,True,"[0.803479081483347, 0.803479081483347, 0.803479081483347]",True,True,lighter,True,0.5003864000318572,left,right,"(0, 0)","(1, 1)","(0, 0)","(0, 0)","(0, 0)","(1, 1)","(0, 0)","(0, 0)"
interactor,58,9.52030273495329,0.267463848582711,0.168,45_bottom_l,True,3.573994899983518,,3.841243000002578,True,"[0.43546384858271103, 0.43546384858271103, 0.43546384858271103]",False,True,lighter,True,0.4834525999613106,right,up,"(0, 1)","(0, 0)","(0, 0)","(1, 0)","(1, 1)","(0, 0)","(0, 0)","(0, 0)"
interactor,59,9.62051131584309,0.23841623790381966,0.335,45_bottom_l,False,,,3.8665356000419706,True,"[0.5734162379038197, 0.5734162379038197, 0.5734162379038197]",True,False,lighter,True,0.5833503999747336,right,left,"(0, 0)","(0, 0)","(0, 0)","(1, 1)","(1, 0)","(0, 0)","(0, 0)","(0, 1)"
interactor,60,9.767657946374147,0.39284213294420656,0.168,45_bottom_l,False,,,3.8572622999781743,True,"[0.5608421329442066, 0.5608421329442066, 0.5608421329442066]",True,False,lighter,True,0.48337110003922135,right,left,"(0, 0)","(0, 0)","(0, 0)","(1, 1)","(1, 0)","(0, 0)","(0, 0)","(0, 1)"
empty,61,9.487028088559395,0.16761693254155685,0.0,none_d,True,3.576095699914731,right,3.842190199997276,True,"[0.16761693254155685, 0.16761693254155685, 0.16761693254155685]",False,False,space,,,up,left,"(0, 0)","(0, 0)","(1, 0)","(0, 1)","(0, 0)","(0, 0)","(1, 0)","(0, 1)"
interactor,62,9.711036052225058,0.1892849006776454,-0.168,45_top_r,True,3.5742689999751747,,3.8416060999734327,True,"[0.02128490067764538, 0.02128490067764538, 0.02128490067764538]",False,True,darker,True,0.783592400024645,left,down,"(0, 0)","(1, 0)","(0, 1)","(0, 0)","(0, 0)","(0, 0)","(1, 1)","(0, 0)"
interactor,63,9.363893957325105,0.5429838150584156,-0.168,135_bottom_r,True,3.57440169993788,,3.840510999900289,True,"[0.3749838150584156, 0.3749838150584156, 0.3749838150584156]",False,True,darker,True,0.9336384000489488,left,up,"(0, 1)","(1, 0)","(0, 0)","(0, 0)","(1, 1)","(0, 0)","(0, 0)","(0, 0)"
empty,64,9.575026794215857,-0.07464148322853623,0.168,none_u,False,,,3.858524000039324,True,"[0.09335851677146378, 0.09335851677146378, 0.09335851677146378]",True,True,darker,False,0.7830905999289826,down,up,"(1, 1)","(0, 0)","(0, 0)","(0, 0)","(1, 1)","(0, 0)","(0, 0)","(0, 0)"
interactor,65,9.542963995519962,0.10484184105471087,-0.168,135_bottom_r,True,3.5737994000082836,,3.841155600035563,True,"[-0.06315815894528914, -0.06315815894528914, -0.06315815894528914]",False,True,darker,True,0.6507028000196442,left,up,"(0, 1)","(1, 0)","(0, 0)","(0, 0)","(1, 1)","(0, 0)","(0, 0)","(0, 0)"
interactor,66,9.348883336097774,0.30718963266465943,0.168,135_top_l,True,3.5829591000219807,,3.8504426000872627,True,"[0.4751896326646594, 0.4751896326646594, 0.4751896326646594]",False,True,lighter,True,0.48364089999813586,right,down,"(0, 0)","(0, 0)","(0, 1)","(1, 0)","(0, 0)","(0, 0)","(1, 1)","(0, 0)"
empty,67,9.615709674560836,0.14102985827719167,-0.335,none_d,True,3.575108899967745,right,3.8423453000141308,True,"[-0.19397014172280835, -0.19397014172280835, -0.19397014172280835]",False,False,darker,True,0.6338571000378579,up,left,"(0, 0)","(0, 0)","(1, 0)","(0, 1)","(0, 0)","(0, 0)","(1, 0)","(0, 1)"
interactor,68,9.523354341892775,0.43514362080984526,-0.168,45_top_u,False,,,3.8666695000138134,True,"[0.2671436208098452, 0.2671436208098452, 0.2671436208098452]",True,False,darker,True,0.7013867000350729,down,up,"(1, 1)","(0, 0)","(0, 0)","(0, 0)","(0, 1)","(0, 0)","(0, 0)","(1, 0)"
interactor,69,9.509454629335973,0.25563910660130823,-0.335,45_bottom_d,True,3.574968700064346,,3.841199400019832,True,"[-0.07936089339869179, -0.07936089339869179, -0.07936089339869179]",False,True,darker,True,0.633596200030297,up,right,"(0, 0)","(0, 1)","(1, 0)","(0, 0)","(0, 0)","(1, 1)","(0, 0)","(0, 0)"
interactor,70,9.328584732482891,-0.13055658815665652,0.0,45_bottom_d,True,3.574181000003591,,3.8405672000953928,True,"[-0.13055658815665652, -0.13055658815665652, -0.13055658815665652]",False,True,lighter,,0.7011353999841958,up,right,"(0, 0)","(0, 1)","(1, 0)","(0, 0)","(0, 0)","(1, 1)","(0, 0)","(0, 0)"
interactor,71,9.389273593871419,0.23287782470010254,0.335,45_bottom_d,False,,,3.8579809000948444,True,"[0.5678778247001026, 0.5678778247001026, 0.5678778247001026]",True,False,lighter,True,0.5005089999176562,up,down,"(0, 0)","(0, 0)","(1, 1)","(0, 0)","(0, 0)","(1, 0)","(0, 1)","(0, 0)"
empty,72,9.82666400260342,0.15602909287666114,-0.335,none_l,False,,,3.8589176000095904,True,"[-0.17897090712333888, -0.17897090712333888, -0.17897090712333888]",True,True,darker,True,0.4825963999610394,right,left,"(0, 0)","(0, 0)","(0, 0)","(1, 1)","(0, 0)","(0, 0)","(0, 0)","(1, 1)"
interactor,73,9.85958107073488,0.47904621698440397,-0.168,45_bottom_l,False,,,3.864354200079106,True,"[0.31104621698440393, 0.31104621698440393, 0.31104621698440393]",True,False,darker,True,0.7008619999978691,right,left,"(0, 0)","(0, 0)","(0, 0)","(1, 1)","(1, 0)","(0, 0)","(0, 0)","(0, 1)"
empty,74,9.82635154377093,0.25000559046798354,-0.335,none_d,True,3.5740392999723554,right,3.8569319000234827,True,"[-0.08499440953201648, -0.08499440953201648, -0.08499440953201648]",False,False,darker,True,0.6849514000350609,up,left,"(0, 0)","(0, 0)","(1, 0)","(0, 1)","(0, 0)","(0, 0)","(1, 0)","(0, 1)"
empty,75,9.296250030271734,0.029488240086713552,-0.168,none_l,False,,,3.858328599948436,True,"[-0.13851175991328646, -0.13851175991328646, -0.13851175991328646]",True,True,darker,True,0.46744569996371865,right,left,"(0, 0)","(0, 0)","(0, 0)","(1, 1)","(0, 0)","(0, 0)","(0, 0)","(1, 1)"
interactor,76,8.783486127784396,-0.17859210528195538,0.168,45_top_r,False,,,3.8649299999233335,True,"[-0.010592105281955366, -0.010592105281955366, -0.010592105281955366]",True,False,darker,False,0.7180481000104919,left,right,"(0, 0)","(1, 1)","(0, 0)","(0, 0)","(0, 0)","(0, 1)","(1, 0)","(0, 0)"
interactor,77,9.492161914441466,0.1818108650347813,-0.335,135_top_l,True,3.5821518999291584,,3.850431300001219,True,"[-0.15318913496521872, -0.15318913496521872, -0.15318913496521872]",False,True,darker,True,0.6328137998934835,right,down,"(0, 0)","(0, 0)","(0, 1)","(1, 0)","(0, 0)","(0, 0)","(1, 1)","(0, 0)"
interactor,78,9.20611082928673,0.4365669954607768,-0.168,135_top_u,True,3.574985400075093,,3.8410735999932513,True,"[0.2685669954607768, 0.2685669954607768, 0.2685669954607768]",False,True,darker,True,0.766142800101079,down,right,"(1, 0)","(0, 1)","(0, 0)","(0, 0)","(0, 0)","(1, 1)","(0, 0)","(0, 0)"
interactor,79,9.406942474516468,0.09268817865773274,0.0,45_top_u,False,,,3.865955299930647,True,"[0.09268817865773274, 0.09268817865773274, 0.09268817865773274]",True,False,darker,,0.517205800046213,down,up,"(1, 1)","(0, 0)","(0, 0)","(0, 0)","(0, 1)","(0, 0)","(0, 0)","(1, 0)"
empty,80,9.272211525254903,0.16699934396934918,-0.335,none_r,True,3.5816130000166595,left,3.848832600051537,True,"[-0.16800065603065084, -0.16800065603065084, -0.16800065603065084]",False,False,darker,True,0.5001894999295473,left,up,"(0, 1)","(1, 0)","(0, 0)","(0, 0)","(0, 1)","(1, 0)","(0, 0)","(0, 0)"
empty,81,9.662474591878661,0.14505911425830373,0.168,none_d,True,3.583371500018984,right,3.85030180006288,True,"[0.31305911425830374, 0.31305911425830374, 0.31305911425830374]",False,False,space,,,up,left,"(0, 0)","(0, 0)","(1, 0)","(0, 1)","(0, 0)","(0, 0)","(1, 0)","(0, 1)"
empty,82,9.37496113851887,0.3712972458804463,-0.168,none_r,False,,,3.866193800000474,True,"[0.20329724588044631, 0.20329724588044631, 0.20329724588044631]",True,True,darker,True,0.5827449000207707,left,right,"(0, 0)","(1, 1)","(0, 0)","(0, 0)","(0, 0)","(1, 1)","(0, 0)","(0, 0)"
interactor,83,9.478915208930623,0.2806895376932892,0.168,45_bottom_d,False,,,3.8567138999933377,True,"[0.44868953769328923, 0.44868953769328923, 0.44868953769328923]",True,False,lighter,True,0.3679254000307992,up,down,"(0, 0)","(0, 0)","(1, 1)","(0, 0)","(0, 0)","(1, 0)","(0, 1)","(0, 0)"
empty,84,9.407273812835216,0.10854037411000597,-0.335,none_r,False,,,3.8587191000115126,True,"[-0.22645962588999405, -0.22645962588999405, -0.22645962588999405]",True,True,darker,True,0.48460179998073727,left,right,"(0, 0)","(1, 1)","(0, 0)","(0, 0)","(0, 0)","(1, 1)","(0, 0)","(0, 0)"
interactor,85,9.54313444013285,0.11852600194326851,-0.335,45_top_u,False,,,3.8578267000848427,True,"[-0.2164739980567315, -0.2164739980567315, -0.2164739980567315]",True,False,darker,True,0.5007792999967933,down,up,"(1, 1)","(0, 0)","(0, 0)","(0, 0)","(0, 1)","(0, 0)","(0, 0)","(1, 0)"
empty,86,9.92615879690953,-0.10774313443318814,0.168,none_d,False,,,3.866168399923481,True,"[0.06025686556681187, 0.06025686556681187, 0.06025686556681187]",True,True,lighter,True,0.45127489999867976,up,down,"(0, 0)","(0, 0)","(1, 1)","(0, 0)","(0, 0)","(0, 0)","(1, 1)","(0, 0)"
interactor,87,9.387371521018416,0.4452861039328938,0.335,45_top_u,True,3.5738029000349343,,3.841971799964085,True,"[0.7802861039328939, 0.7802861039328939, 0.7802861039328939]",False,True,lighter,True,0.5822940000798553,down,left,"(1, 0)","(0, 0)","(0, 0)","(0, 1)","(0, 0)","(0, 0)","(0, 0)","(1, 1)"
empty,88,9.863621557186539,0.1732754030358495,0.0,none_d,False,,,3.867519799969159,True,"[0.1732754030358495, 0.1732754030358495, 0.1732754030358495]",True,True,darker,,0.7175507999490947,up,down,"(0, 0)","(0, 0)","(1, 1)","(0, 0)","(0, 0)","(0, 0)","(1, 1)","(0, 0)"
empty,89,9.484483183525867,0.09597912455616553,-0.168,none_u,True,3.5827592000132427,right,3.8498793999897316,True,"[-0.07202087544383448, -0.07202087544383448, -0.07202087544383448]",False,False,darker,True,0.5675898999907076,down,right,"(1, 0)","(0, 1)","(0, 0)","(0, 0)","(1, 0)","(0, 1)","(0, 0)","(0, 0)"
empty,90,9.41975778524156,-0.13960989254710007,0.168,none_r,False,,,3.8572891999501735,True,"[0.028390107452899938, 0.028390107452899938, 0.028390107452899938]",True,True,lighter,True,0.5838089000899345,left,right,"(0, 0)","(1, 1)","(0, 0)","(0, 0)","(0, 0)","(1, 1)","(0, 0)","(0, 0)"
empty,91,9.485533160283634,0.2962287511763648,-0.168,none_d,True,3.5837763000745326,right,3.8495388000737876,True,"[0.1282287511763648, 0.1282287511763648, 0.1282287511763648]",False,False,space,,,up,left,"(0, 0)","(0, 0)","(1, 0)","(0, 1)","(0, 0)","(0, 0)","(1, 0)","(0, 1)"
empty,92,9.669641739085542,-0.14478111743254643,0.335,none_d,False,,,3.866886500036344,True,"[0.1902188825674536, 0.1902188825674536, 0.1902188825674536]",True,True,lighter,True,0.484171099960804,up,down,"(0, 0)","(0, 0)","(1, 1)","(0, 0)","(0, 0)","(0, 0)","(1, 1)","(0, 0)"
empty,93,9.7542475556798,0.30054905725859704,-0.335,none_u,True,3.573929200065322,left,3.8409875000361353,True,"[-0.03445094274140298, -0.03445094274140298, -0.03445094274140298]",False,False,darker,True,0.5327459999825805,down,left,"(1, 0)","(0, 0)","(0, 0)","(0, 1)","(1, 0)","(0, 0)","(0, 0)","(0, 1)"
interactor,94,9.046409333535546,0.027125654270115124,-0.335,45_top_u,False,,,3.867105699959211,True,"[-0.3078743457298849, -0.3078743457298849, -0.3078743457298849]",True,False,darker,True,0.5837380000157282,down,up,"(1, 1)","(0, 0)","(0, 0)","(0, 0)","(0, 1)","(0, 0)","(0, 0)","(1, 0)"
interactor,95,9.882355634624409,0.25484092074669906,-0.168,135_top_u,False,,,3.866361299995333,True,"[0.08684092074669905, 0.08684092074669905, 0.08684092074669905]",True,False,darker,True,0.5856482000090182,down,up,"(1, 1)","(0, 0)","(0, 0)","(0, 0)","(0, 1)","(1, 0)","(0, 0)","(0, 0)"
interactor,96,9.47760134649357,0.20637460674376862,-0.168,45_bottom_d,True,3.58265570004005,,3.8500976000213996,True,"[0.03837460674376861, 0.03837460674376861, 0.03837460674376861]",False,True,darker,True,0.7671338999643922,up,right,"(0, 0)","(0, 1)","(1, 0)","(0, 0)","(0, 0)","(1, 1)","(0, 0)","(0, 0)"
empty,97,9.853957568272,-0.2630773090443713,0.335,none_r,True,3.5825510999420658,right,3.865637799957767,True,"[0.0719226909556287, 0.0719226909556287, 0.0719226909556287]",False,False,lighter,True,0.4012609999626875,left,down,"(0, 0)","(1, 0)","(0, 1)","(0, 0)","(0, 0)","(1, 0)","(0, 1)","(0, 0)"
empty,98,9.577400663327118,0.3314751916147072,0.168,none_u,False,,,3.859411900048144,True,"[0.4994751916147072, 0.4994751916147072, 0.4994751916147072]",True,True,lighter,True,0.6663933999370784,down,up,"(1, 1)","(0, 0)","(0, 0)","(0, 0)","(1, 1)","(0, 0)","(0, 0)","(0, 0)"
interactor,99,9.618896080014562,0.05750946948216282,-0.335,135_top_u,True,3.58236310002394,,3.8505921999458224,True,"[-0.27749053051783723, -0.27749053051783723, -0.27749053051783723]",False,True,darker,True,0.549631500034593,down,right,"(1, 0)","(0, 1)","(0, 0)","(0, 0)","(0, 0)","(1, 1)","(0, 0)","(0, 0)"
empty,100,9.008520334315484,0.30972357544946105,-0.168,none_d,False,,,3.867276099976152,True,"[0.14172357544946104, 0.14172357544946104, 0.14172357544946104]",True,True,darker,True,0.7497354000806808,up,down,"(0, 0)","(0, 0)","(1, 1)","(0, 0)","(0, 0)","(0, 0)","(1, 1)","(0, 0)"
empty,101,9.730660805285565,0.09756416057629869,0.0,none_l,True,3.5826438000658527,left,3.849457500036806,True,"[0.09756416057629869, 0.09756416057629869, 0.09756416057629869]",False,False,lighter,,0.7337389000458643,right,down,"(0, 0)","(0, 0)","(0, 1)","(1, 0)","(0, 0)","(0, 0)","(0, 1)","(1, 0)"
interactor,102,9.42815812715569,0.17016926670280888,0.0,45_bottom_l,False,,,3.857439799932763,True,"[0.17016926670280888, 0.17016926670280888, 0.17016926670280888]",True,False,darker,,1.066536600003019,right,left,"(0, 0)","(0, 0)","(0, 0)","(1, 1)","(1, 0)","(0, 0)","(0, 0)","(0, 1)"
interactor,103,9.389416780148911,0.08553312253118203,-0.335,135_top_u,True,3.5826995000243187,,3.8477791000623256,True,"[-0.249466877468818, -0.249466877468818, -0.249466877468818]",False,True,darker,True,0.7513589999871328,down,right,"(1, 0)","(0, 1)","(0, 0)","(0, 0)","(0, 0)","(1, 1)","(0, 0)","(0, 0)"
empty,104,9.09101916945352,0.06611545496546377,0.335,none_d,True,3.5826131999492645,right,3.8495875999797136,True,"[0.4011154549654638, 0.4011154549654638, 0.4011154549654638]",False,False,lighter,True,0.4341831000056118,up,left,"(0, 0)","(0, 0)","(1, 0)","(0, 1)","(0, 0)","(0, 0)","(1, 0)","(0, 1)"
empty,105,9.564894179455116,-0.04154408200661658,-0.168,none_l,False,,,3.8659120000666007,True,"[-0.2095440820066166, -0.2095440820066166, -0.2095440820066166]",True,True,darker,True,0.5496534999692813,right,left,"(0, 0)","(0, 0)","(0, 0)","(1, 1)","(0, 0)","(0, 0)","(0, 0)","(1, 1)"
interactor,106,9.758482292219245,0.29646398038520283,0.0,45_top_r,False,,,3.8650498000206426,True,"[0.29646398038520283, 0.29646398038520283, 0.29646398038520283]",True,False,darker,,0.9502395000308752,left,right,"(0, 0)","(1, 1)","(0, 0)","(0, 0)","(0, 0)","(0, 1)","(1, 0)","(0, 0)"
interactor,107,9.365418715430057,-0.23284486067108126,-0.168,135_top_l,True,3.583457500091754,,3.8516667000949383,True,"[-0.40084486067108127, -0.40084486067108127, -0.40084486067108127]",False,True,darker,True,0.46535720000974834,right,down,"(0, 0)","(0, 0)","(0, 1)","(1, 0)","(0, 0)","(0, 0)","(1, 1)","(0, 0)"
empty,108,9.635554340043084,-0.057556002556679114,0.0,none_u,False,,,3.864668700029142,True,"[-0.057556002556679114, -0.057556002556679114, -0.057556002556679114]",True,True,darker,,0.8852123999968171,down,up,"(1, 1)","(0, 0)","(0, 0)","(0, 0)","(1, 1)","(0, 0)","(0, 0)","(0, 0)"
interactor,109,9.16276048977773,0.17305338594391986,0.168,45_bottom_l,False,,,3.8679704000242054,True,"[0.3410533859439199, 0.3410533859439199, 0.3410533859439199]",True,False,lighter,True,0.6661419000010937,right,left,"(0, 0)","(0, 0)","(0, 0)","(1, 1)","(1, 0)","(0, 0)","(0, 0)","(0, 1)"
empty,110,9.770957504313648,0.2281477425787347,-0.335,none_d,True,3.5827571999980137,right,3.8489852999337018,True,"[-0.1068522574212653, -0.1068522574212653, -0.1068522574212653]",False,False,darker,True,0.616625800030306,up,left,"(0, 0)","(0, 0)","(1, 0)","(0, 1)","(0, 0)","(0, 0)","(1, 0)","(0, 1)"
empty,111,9.101373218774064,0.33158916596578786,0.0,none_d,False,,,3.8659001999767497,True,"[0.33158916596578786, 0.33158916596578786, 0.33158916596578786]",True,True,lighter,,0.5844568000175059,up,down,"(0, 0)","(0, 0)","(1, 1)","(0, 0)","(0, 0)","(0, 0)","(1, 1)","(0, 0)"
empty,112,9.184343840267829,0.36552697606411316,-0.168,none_r,True,3.5743771999841556,left,3.8421038000378758,True,"[0.19752697606411315, 0.19752697606411315, 0.19752697606411315]",False,False,darker,True,0.632019400014542,left,up,"(0, 1)","(1, 0)","(0, 0)","(0, 0)","(0, 1)","(1, 0)","(0, 0)","(0, 0)"
empty,113,9.418409490262803,0.2422595109835581,-0.168,none_r,True,3.5752129999455065,left,3.8422580999322236,True,"[0.0742595109835581, 0.0742595109835581, 0.0742595109835581]",False,False,darker,True,0.7167648000176996,left,up,"(0, 1)","(1, 0)","(0, 0)","(0, 0)","(0, 1)","(1, 0)","(0, 0)","(0, 0)"
empty,114,8.940699009515765,0.1705792169203598,-0.335,none_d,True,3.582344299997203,right,3.849091500043869,True,"[-0.16442078307964023, -0.16442078307964023, -0.16442078307964023]",False,False,darker,True,0.5342459999956191,up,left,"(0, 0)","(0, 0)","(1, 0)","(0, 1)","(0, 0)","(0, 0)","(1, 0)","(0, 1)"
empty,115,9.537258317486062,-0.336817062128031,0.0,none_l,False,,,3.8655976000009105,True,"[-0.336817062128031, -0.336817062128031, -0.336817062128031]",True,True,darker,,0.5174929000204429,right,left,"(0, 0)","(0, 0)","(0, 0)","(1, 1)","(0, 0)","(0, 0)","(0, 0)","(1, 1)"
interactor,116,9.651107909708498,0.19452621862588043,0.0,135_bottom_d,True,3.5808331000152975,,3.849251300096512,True,"[0.19452621862588043, 0.19452621862588043, 0.19452621862588043]",False,True,lighter,,0.44957689999137074,up,left,"(0, 0)","(0, 0)","(1, 0)","(0, 1)","(0, 0)","(0, 0)","(0, 0)","(1, 1)"
empty,117,9.3104728778303,0.2846098289775162,-0.168,none_d,True,3.582983999978751,right,3.8498508000047877,True,"[0.11660982897751618, 0.11660982897751618, 0.11660982897751618]",False,False,lighter,False,0.7167714999523014,up,left,"(0, 0)","(0, 0)","(1, 0)","(0, 1)","(0, 0)","(0, 0)","(1, 0)","(0, 1)"
empty,118,9.57472240629524,0.008109378489746938,0.335,none_u,True,3.5822184999706224,left,3.849063100060448,True,"[0.343109378489747, 0.343109378489747, 0.343109378489747]",False,False,lighter,True,0.4681291999295354,down,left,"(1, 0)","(0, 0)","(0, 0)","(0, 1)","(1, 0)","(0, 0)","(0, 0)","(0, 1)"
interactor,119,9.577797224180044,0.16160804745799268,0.335,135_top_l,False,,,3.864693700103089,True,"[0.4966080474579927, 0.4966080474579927, 0.4966080474579927]",True,False,lighter,True,0.500349499983713,right,left,"(0, 0)","(0, 0)","(0, 0)","(1, 1)","(0, 0)","(0, 0)","(1, 0)","(0, 1)"
interactor,120,9.861360000621083,0.2418631629979751,0.335,135_bottom_d,False,,,3.866223799996078,True,"[0.5768631629979751, 0.5768631629979751, 0.5768631629979751]",True,False,lighter,True,0.4514179000398144,up,down,"(0, 0)","(0, 0)","(1, 1)","(0, 0)","(0, 0)","(0, 0)","(0, 1)","(1, 0)"
interactor,121,9.896991406268462,0.20196295421802152,-0.168,135_bottom_r,False,,,3.8676795000210404,True,"[0.03396295421802151, 0.03396295421802151, 0.03396295421802151]",True,False,darker,True,0.7162390999728814,left,right,"(0, 0)","(1, 1)","(0, 0)","(0, 0)","(1, 0)","(0, 1)","(0, 0)","(0, 0)"
empty,122,9.42791957040874,0.17262556949986949,0.168,none_u,True,3.5826378000201657,left,3.8495417999802157,True,"[0.3406255694998695, 0.3406255694998695, 0.3406255694998695]",False,False,lighter,True,0.5329597999807447,down,left,"(1, 0)","(0, 0)","(0, 0)","(0, 1)","(1, 0)","(0, 0)","(0, 0)","(0, 1)"
interactor,123,9.230053593211554,0.6251442119535123,0.168,135_bottom_r,True,3.583927500061691,,3.8488577000098303,True,"[0.7931442119535124, 0.7931442119535124, 0.7931442119535124]",False,True,lighter,True,0.6677456999896094,left,up,"(0, 1)","(1, 0)","(0, 0)","(0, 0)","(1, 1)","(0, 0)","(0, 0)","(0, 0)"
interactor,124,9.315779447792107,0.012526342194213336,-0.335,45_top_u,True,3.574357600067742,,3.841703800018877,True,"[-0.3224736578057867, -0.3224736578057867, -0.3224736578057867]",False,True,darker,True,0.4843447000021115,down,left,"(1, 0)","(0, 0)","(0, 0)","(0, 1)","(0, 0)","(0, 0)","(0, 0)","(1, 1)"
interactor,125,9.509673118354366,0.1917446342646764,0.335,135_top_u,False,,,3.8583720000460744,True,"[0.5267446342646764, 0.5267446342646764, 0.5267446342646764]",True,False,lighter,True,0.5823596999980509,down,up,"(1, 1)","(0, 0)","(0, 0)","(0, 0)","(0, 1)","(1, 0)","(0, 0)","(0, 0)"
interactor,126,9.50661443050943,0.31302926580880447,-0.335,45_bottom_l,True,3.5813438000623137,,3.84971380000934,True,"[-0.02197073419119555, -0.02197073419119555, -0.02197073419119555]",False,True,darker,True,0.5509822000749409,right,up,"(0, 1)","(0, 0)","(0, 0)","(1, 0)","(1, 1)","(0, 0)","(0, 0)","(0, 0)"
interactor,127,9.947695449724117,-0.04714819802058462,0.0,45_top_u,True,3.581817700061947,,3.865187900024466,True,"[-0.04714819802058462, -0.04714819802058462, -0.04714819802058462]",False,True,darker,,0.45077060000039637,down,left,"(1, 0)","(0, 0)","(0, 0)","(0, 1)","(0, 0)","(0, 0)","(0, 0)","(1, 1)"
empty,128,9.133243861503834,0.23874265957406038,0.335,none_r,True,3.5814014999195933,right,3.848324100021273,True,"[0.5737426595740605, 0.5737426595740605, 0.5737426595740605]",False,False,lighter,True,0.40060289995744824,left,down,"(0, 0)","(1, 0)","(0, 1)","(0, 0)","(0, 0)","(1, 0)","(0, 1)","(0, 0)"
interactor,129,9.624629079508463,0.09359617655162182,0.335,135_bottom_r,True,3.5815619999775663,,3.848882499965839,True,"[0.42859617655162185, 0.42859617655162185, 0.42859617655162185]",False,True,lighter,True,0.5170845000538975,left,up,"(0, 1)","(1, 0)","(0, 0)","(0, 0)","(1, 1)","(0, 0)","(0, 0)","(0, 0)"
interactor,130,9.681716922384508,0.3056347743549842,0.335,135_top_u,True,3.58206699998118,,3.850387700018473,True,"[0.6406347743549843, 0.6406347743549843, 0.6406347743549843]",False,True,darker,False,0.48250150005333126,down,right,"(1, 0)","(0, 1)","(0, 0)","(0, 0)","(0, 0)","(1, 1)","(0, 0)","(0, 0)"
empty,131,9.521721478200627,0.14977965151941797,-0.335,none_r,True,3.581998400040902,right,3.8488456000341102,True,"[-0.18522034848058205, -0.18522034848058205, -0.18522034848058205]",False,False,space,,,left,down,"(0, 0)","(1, 0)","(0, 1)","(0, 0)","(0, 0)","(1, 0)","(0, 1)","(0, 0)"
interactor,132,9.922022172438373,0.39865077726945175,0.0,135_top_u,True,3.584358899970539,,3.866719700046815,True,"[0.39865077726945175, 0.39865077726945175, 0.39865077726945175]",False,True,lighter,,0.38414999993983656,down,right,"(1, 0)","(0, 1)","(0, 0)","(0, 0)","(0, 0)","(1, 1)","(0, 0)","(0, 0)"
interactor,133,9.290371367776515,0.2040148875521177,0.0,45_bottom_d,False,,,3.866806900012307,True,"[0.2040148875521177, 0.2040148875521177, 0.2040148875521177]",True,False,lighter,,0.6501741000683978,up,down,"(0, 0)","(0, 0)","(1, 1)","(0, 0)","(0, 0)","(1, 0)","(0, 1)","(0, 0)"
empty,134,9.681207618608843,-0.032651622579945,0.168,none_u,False,,,3.8656168000306934,True,"[0.135348377420055, 0.135348377420055, 0.135348377420055]",True,True,darker,False,0.6496696000685915,down,up,"(1, 1)","(0, 0)","(0, 0)","(0, 0)","(1, 1)","(0, 0)","(0, 0)","(0, 0)"
interactor,135,9.92860120528096,-0.021668264209135757,0.0,135_top_u,True,3.573723000008613,,3.8568517999956384,True,"[-0.021668264209135757, -0.021668264209135757, -0.021668264209135757]",False,True,darker,,0.5677086999639869,down,right,"(1, 0)","(0, 1)","(0, 0)","(0, 0)","(0, 0)","(1, 1)","(0, 0)","(0, 0)"
interactor,136,9.292578626005003,0.31549134259867406,-0.168,45_top_r,True,3.581995900021866,,3.8491820000344887,True,"[0.14749134259867405, 0.14749134259867405, 0.14749134259867405]",False,True,lighter,False,0.4836057999636978,left,down,"(0, 0)","(1, 0)","(0, 1)","(0, 0)","(0, 0)","(0, 0)","(1, 1)","(0, 0)"
empty,137,9.234810898616963,0.2630955928093219,0.168,none_r,True,3.584126399946399,right,3.8499298999086022,True,"[0.43109559280932186, 0.43109559280932186, 0.43109559280932186]",False,False,lighter,True,0.43444140010979027,left,down,"(0, 0)","(1, 0)","(0, 1)","(0, 0)","(0, 0)","(1, 0)","(0, 1)","(0, 0)"
empty,138,9.502160910236338,-0.047233994423617115,0.0,none_r,False,,,3.8663242999464273,True,"[-0.047233994423617115, -0.047233994423617115, -0.047233994423617115]",True,True,lighter,,0.43331970006693155,left,right,"(0, 0)","(1, 1)","(0, 0)","(0, 0)","(0, 0)","(1, 1)","(0, 0)","(0, 0)"
interactor,139,9.476505832082573,0.13383186481343057,-0.168,135_top_l,True,3.581547599984333,,3.848901899997145,True,"[-0.03416813518656944, -0.03416813518656944, -0.03416813518656944]",False,True,lighter,False,0.48335709993261844,right,down,"(0, 0)","(0, 0)","(0, 1)","(1, 0)","(0, 0)","(0, 0)","(1, 1)","(0, 0)"
empty,140,9.864839542779608,0.024676291246956583,0.0,none_u,False,,,3.8593753000022843,True,"[0.024676291246956583, 0.024676291246956583, 0.024676291246956583]",True,True,darker,,0.5163340999279171,down,up,"(1, 1)","(0, 0)","(0, 0)","(0, 0)","(1, 1)","(0, 0)","(0, 0)","(0, 0)"
interactor,141,9.676638568258845,0.2259959596717373,0.0,135_top_u,False,,,3.858504800009541,True,"[0.2259959596717373, 0.2259959596717373, 0.2259959596717373]",True,False,space,,,down,up,"(1, 1)","(0, 0)","(0, 0)","(0, 0)","(0, 1)","(1, 0)","(0, 0)","(0, 0)"
interactor,142,9.40942925123383,0.00228120458494685,0.0,135_bottom_r,True,3.574481299961917,,3.841616699937731,True,"[0.00228120458494685, 0.00228120458494685, 0.00228120458494685]",False,True,darker,,0.6171079999767244,left,up,"(0, 1)","(1, 0)","(0, 0)","(0, 0)","(1, 1)","(0, 0)","(0, 0)","(0, 0)"
interactor,143,9.254060504596302,0.5625633727556931,-0.335,135_bottom_d,True,3.5826724999351427,,3.8489305999828503,True,"[0.2275633727556931, 0.2275633727556931, 0.2275633727556931]",False,True,lighter,False,0.5499357000226155,up,left,"(0, 0)","(0, 0)","(1, 0)","(0, 1)","(0, 0)","(0, 0)","(0, 0)","(1, 1)"
interactor,144,9.575050307164007,0.36895170808078825,0.0,135_bottom_r,True,3.5827540000900626,,3.8496618000790477,True,"[0.36895170808078825, 0.36895170808078825, 0.36895170808078825]",False,True,darker,,0.6510503999888897,left,up,"(0, 1)","(1, 0)","(0, 0)","(0, 0)","(1, 1)","(0, 0)","(0, 0)","(0, 0)"
interactor,145,9.319875476534412,0.3008300004772671,0.335,135_top_l,True,3.5827466000337154,,3.8490122000221163,True,"[0.6358300004772671, 0.6358300004772671, 0.6358300004772671]",False,True,lighter,True,0.8019220000132918,right,down,"(0, 0)","(0, 0)","(0, 1)","(1, 0)","(0, 0)","(0, 0)","(1, 1)","(0, 0)"
empty,146,9.486611160076363,0.10151956971717585,-0.335,none_l,False,,,3.8662996999919415,True,"[-0.23348043028282417, -0.23348043028282417, -0.23348043028282417]",True,True,darker,True,0.5009318999946117,right,left,"(0, 0)","(0, 0)","(0, 0)","(1, 1)","(0, 0)","(0, 0)","(0, 0)","(1, 1)"
interactor,147,9.146188426544073,0.08394111637039224,-0.168,45_bottom_l,False,,,3.857726400019601,True,"[-0.08405888362960777, -0.08405888362960777, -0.08405888362960777]",True,False,darker,True,0.4998644998995587,right,left,"(0, 0)","(0, 0)","(0, 0)","(1, 1)","(1, 0)","(0, 0)","(0, 0)","(0, 1)"
empty,148,9.560772110501544,0.47563945220757287,0.168,none_r,True,3.574342400068417,left,3.8400299000786617,True,"[0.6436394522075729, 0.6436394522075729, 0.6436394522075729]",False,False,lighter,True,0.8000284999143332,left,up,"(0, 1)","(1, 0)","(0, 0)","(0, 0)","(0, 1)","(1, 0)","(0, 0)","(0, 0)"
empty,149,9.914397200836612,0.12363925033088531,0.335,none_r,True,3.5850425999378785,left,3.8680307999020442,True,"[0.4586392503308853, 0.4586392503308853, 0.4586392503308853]",False,False,lighter,True,0.6823592000873759,left,up,"(0, 1)","(1, 0)","(0, 0)","(0, 0)","(0, 1)","(1, 0)","(0, 0)","(0, 0)"
empty,150,9.554478297980902,0.267376756623101,0.168,none_u,False,,,3.85849330003839,True,"[0.43537675662310105, 0.43537675662310105, 0.43537675662310105]",True,True,darker,False,0.6180261999834329,down,up,"(1, 1)","(0, 0)","(0, 0)","(0, 0)","(1, 1)","(0, 0)","(0, 0)","(0, 0)"
interactor,151,9.645162368008021,0.41082543263989324,-0.168,45_bottom_l,True,3.575654299929738,,3.8417191999033093,True,"[0.24282543263989323, 0.24282543263989323, 0.24282543263989323]",False,True,darker,True,0.616994500043802,right,up,"(0, 1)","(0, 0)","(0, 0)","(1, 0)","(1, 1)","(0, 0)","(0, 0)","(0, 0)"
interactor,152,9.643174837753493,0.1828033216352795,0.0,135_bottom_r,False,,,3.8676182000199333,True,"[0.1828033216352795, 0.1828033216352795, 0.1828033216352795]",True,False,darker,,0.7151376000838354,left,right,"(0, 0)","(1, 1)","(0, 0)","(0, 0)","(1, 0)","(0, 1)","(0, 0)","(0, 0)"
interactor,153,9.207570932292521,0.036587854394504654,0.0,135_bottom_r,True,3.580809799954295,,3.8478973999153823,True,"[0.036587854394504654, 0.036587854394504654, 0.036587854394504654]",False,True,darker,,0.5175142000662163,left,up,"(0, 1)","(1, 0)","(0, 0)","(0, 0)","(1, 1)","(0, 0)","(0, 0)","(0, 0)"
interactor,154,9.87417319356435,0.2951806692479723,0.335,135_bottom_d,True,3.5755503000691533,,3.858901400002651,True,"[0.6301806692479723, 0.6301806692479723, 0.6301806692479723]",False,True,lighter,True,0.39981520001310855,up,left,"(0, 0)","(0, 0)","(1, 0)","(0, 1)","(0, 0)","(0, 0)","(0, 0)","(1, 1)"
empty,155,9.752684194406644,-0.00393085369296528,-0.335,none_d,False,,,3.8578998999437317,True,"[-0.3389308536929653, -0.3389308536929653, -0.3389308536929653]",True,True,darker,True,0.5512162001105025,up,down,"(0, 0)","(0, 0)","(1, 1)","(0, 0)","(0, 0)","(0, 0)","(1, 1)","(0, 0)"
empty,156,9.925099076556936,-0.03355962381945943,0.0,none_u,False,,,3.865807499969378,True,"[-0.03355962381945943, -0.03355962381945943, -0.03355962381945943]",True,True,darker,,0.7174162999726832,down,up,"(1, 1)","(0, 0)","(0, 0)","(0, 0)","(1, 1)","(0, 0)","(0, 0)","(0, 0)"
interactor,157,9.275751712436051,0.12025169149251018,0.168,135_bottom_r,False,,,3.858871500007808,True,"[0.2882516914925102, 0.2882516914925102, 0.2882516914925102]",True,False,lighter,True,0.40034619998186827,left,right,"(0, 0)","(1, 1)","(0, 0)","(0, 0)","(1, 0)","(0, 1)","(0, 0)","(0, 0)"
interactor,158,9.466891301257903,0.18331409658215547,-0.335,135_bottom_r,False,,,3.8648566000629216,True,"[-0.15168590341784455, -0.15168590341784455, -0.15168590341784455]",True,False,darker,True,0.5002637000288814,left,right,"(0, 0)","(1, 1)","(0, 0)","(0, 0)","(1, 0)","(0, 1)","(0, 0)","(0, 0)"
empty,159,9.28424351505626,0.17743153948104182,0.335,none_r,True,3.5837528000120074,right,3.848979700007476,True,"[0.5124315394810418, 0.5124315394810418, 0.5124315394810418]",False,False,lighter,True,0.48531429993454367,left,down,"(0, 0)","(1, 0)","(0, 1)","(0, 0)","(0, 0)","(1, 0)","(0, 1)","(0, 0)"
empty,160,9.513746614594966,-0.025225667758648956,0.335,none_d,False,,,3.8654475000221282,True,"[0.3097743322413511, 0.3097743322413511, 0.3097743322413511]",True,True,lighter,True,0.3841876999940723,up,down,"(0, 0)","(0, 0)","(1, 1)","(0, 0)","(0, 0)","(0, 0)","(1, 1)","(0, 0)"
empty,161,9.639148984676261,0.4786893202055662,-0.335,none_l,True,3.5752627999754623,left,3.842234899988398,True,"[0.14368932020556618, 0.14368932020556618, 0.14368932020556618]",False,False,lighter,False,0.6158502000616863,right,down,"(0, 0)","(0, 0)","(0, 1)","(1, 0)","(0, 0)","(0, 0)","(0, 1)","(1, 0)"
empty,162,9.203364114626199,-0.11474907458218528,-0.168,none_l,False,,,3.8666974999941885,True,"[-0.2827490745821853, -0.2827490745821853, -0.2827490745821853]",True,True,darker,True,0.4849980999715626,right,left,"(0, 0)","(0, 0)","(0, 0)","(1, 1)","(0, 0)","(0, 0)","(0, 0)","(1, 1)"
empty,163,9.512804890242434,0.011002353862262837,-0.168,none_d,False,,,3.8673708999995142,True,"[-0.15699764613773717, -0.15699764613773717, -0.15699764613773717]",True,True,darker,True,0.6000548999290913,up,down,"(0, 0)","(0, 0)","(1, 1)","(0, 0)","(0, 0)","(0, 0)","(1, 1)","(0, 0)"
interactor,164,9.694911081604344,0.43819157113523155,0.0,135_top_u,False,,,3.8657673000125214,True,"[0.43819157113523155, 0.43819157113523155, 0.43819157113523155]",True,False,darker,,0.7682467999402434,down,up,"(1, 1)","(0, 0)","(0, 0)","(0, 0)","(0, 1)","(1, 0)","(0, 0)","(0, 0)"
empty,165,9.283865224119946,0.1284032635662737,0.168,none_d,False,,,3.8569546999642625,True,"[0.2964032635662737, 0.2964032635662737, 0.2964032635662737]",True,True,lighter,True,0.41669059998821467,up,down,"(0, 0)","(0, 0)","(1, 1)","(0, 0)","(0, 0)","(0, 0)","(1, 1)","(0, 0)"
empty,166,9.230844243736877,0.1848143609812087,-0.168,none_u,False,,,3.8667071000672877,True,"[0.016814360981208698, 0.016814360981208698, 0.016814360981208698]",True,True,darker,True,0.3989820999559015,down,up,"(1, 1)","(0, 0)","(0, 0)","(0, 0)","(1, 1)","(0, 0)","(0, 0)","(0, 0)"
empty,167,9.307470861849229,0.3654535443198108,0.168,none_d,False,,,3.858468999969773,True,"[0.5334535443198108, 0.5334535443198108, 0.5334535443198108]",True,True,lighter,True,0.4665965000167489,up,down,"(0, 0)","(0, 0)","(1, 1)","(0, 0)","(0, 0)","(0, 0)","(1, 1)","(0, 0)"
empty,168,9.882484946561311,0.1541097628919131,0.168,none_r,True,3.573938100016676,right,3.858074099989608,True,"[0.3221097628919131, 0.3221097628919131, 0.3221097628919131]",False,False,lighter,True,0.515944299986586,left,down,"(0, 0)","(1, 0)","(0, 1)","(0, 0)","(0, 0)","(1, 0)","(0, 1)","(0, 0)"
interactor,169,9.893564419650476,0.053801079649948486,-0.335,135_bottom_r,False,,,3.8662006999365985,True,"[-0.28119892035005156, -0.28119892035005156, -0.28119892035005156]",True,False,darker,True,0.4669370000483468,left,right,"(0, 0)","(1, 1)","(0, 0)","(0, 0)","(1, 0)","(0, 1)","(0, 0)","(0, 0)"
empty,170,8.557317143973247,-0.10075485187354391,0.0,none_l,True,3.5735608000541106,right,3.8415832000318915,True,"[-0.10075485187354391, -0.10075485187354391, -0.10075485187354391]",False,False,darker,,0.7658811999717727,right,up,"(0, 1)","(0, 0)","(0, 0)","(1, 0)","(0, 1)","(0, 0)","(0, 0)","(1, 0)"
interactor,171,9.383059878450867,0.0748475371495071,-0.335,45_top_r,False,,,3.8661740999668837,True,"[-0.2601524628504929, -0.2601524628504929, -0.2601524628504929]",True,False,space,,,left,right,"(0, 0)","(1, 1)","(0, 0)","(0, 0)","(0, 0)","(0, 1)","(1, 0)","(0, 0)"
empty,172,9.294836555638435,0.5024928453626855,-0.335,none_d,False,,,3.8570385000202805,True,"[0.16749284536268544, 0.16749284536268544, 0.16749284536268544]",True,True,lighter,False,0.3996462000068277,up,down,"(0, 0)","(0, 0)","(1, 1)","(0, 0)","(0, 0)","(0, 0)","(1, 1)","(0, 0)"
interactor,173,9.907357162286162,-0.2574883775465323,-0.168,45_top_u,True,3.5831023999489844,,3.867508399998769,True,"[-0.42548837754653235, -0.42548837754653235, -0.42548837754653235]",False,True,darker,True,0.533276499947533,down,left,"(1, 0)","(0, 0)","(0, 0)","(0, 1)","(0, 0)","(0, 0)","(0, 0)","(1, 1)"
interactor,174,9.181180305726551,0.0006127743842662958,-0.335,135_top_l,False,,,3.865588300046511,True,"[-0.33438722561573375, -0.33438722561573375, -0.33438722561573375]",True,False,darker,True,0.5502804999705404,right,left,"(0, 0)","(0, 0)","(0, 0)","(1, 1)","(0, 0)","(0, 0)","(1, 0)","(0, 1)"
empty,175,9.24016743271641,-0.011643850935708772,-0.168,none_l,True,3.5818263000110164,left,3.8497038000496104,True,"[-0.17964385093570878, -0.17964385093570878, -0.17964385093570878]",False,False,darker,True,0.6004782000090927,right,down,"(0, 0)","(0, 0)","(0, 1)","(1, 0)","(0, 0)","(0, 0)","(0, 1)","(1, 0)"
empty,176,9.488360421581836,-0.02853861053534873,0.0,none_r,True,3.574838600005023,right,3.8417723000748083,True,"[-0.02853861053534873, -0.02853861053534873, -0.02853861053534873]",False,False,lighter,,0.8839712999761105,left,down,"(0, 0)","(1, 0)","(0, 1)","(0, 0)","(0, 0)","(1, 0)","(0, 1)","(0, 0)"
interactor,177,9.269482268384678,0.14531187643740442,0.168,135_top_l,False,,,3.866721700062044,True,"[0.31331187643740444, 0.31331187643740444, 0.31331187643740444]",True,False,lighter,True,0.48208579991478473,right,left,"(0, 0)","(0, 0)","(0, 0)","(1, 1)","(0, 0)","(0, 0)","(1, 0)","(0, 1)"
interactor,178,9.344123530307296,0.07400500404190963,0.335,45_bottom_d,True,3.5831848999951035,,3.8505551000125706,True,"[0.40900500404190965, 0.40900500404190965, 0.40900500404190965]",False,True,lighter,True,0.6011480999877676,up,right,"(0, 0)","(0, 1)","(1, 0)","(0, 0)","(0, 0)","(1, 1)","(0, 0)","(0, 0)"
interactor,179,9.456395427449706,0.035105317240486905,-0.335,135_bottom_d,False,,,3.867926999926567,True,"[-0.29989468275951314, -0.29989468275951314, -0.29989468275951314]",True,False,darker,True,0.4819028000347316,up,down,"(0, 0)","(0, 0)","(1, 1)","(0, 0)","(0, 0)","(0, 0)","(0, 1)","(1, 0)"
interactor,180,9.407654696843586,0.4883374407105522,0.335,45_bottom_l,True,3.583136699977331,,3.8495346000418067,True,"[0.8233374407105523, 0.8233374407105523, 0.8233374407105523]",False,True,lighter,True,0.4335406000027433,right,up,"(0, 1)","(0, 0)","(0, 0)","(1, 0)","(1, 1)","(0, 0)","(0, 0)","(0, 0)"
empty,181,10.160004661834112,-0.13764136204254115,0.335,none_d,True,3.584516800008714,right,3.8683807000052184,True,"[0.19735863795745887, 0.19735863795745887, 0.19735863795745887]",False,False,lighter,True,0.38266929995734245,up,left,"(0, 0)","(0, 0)","(1, 0)","(0, 1)","(0, 0)","(0, 0)","(1, 0)","(0, 1)"
interactor,182,9.558703389589681,0.12007083442243265,0.168,135_top_u,False,,,3.8659426999511197,True,"[0.28807083442243264, 0.28807083442243264, 0.28807083442243264]",True,False,darker,False,0.7012278999900445,down,up,"(1, 1)","(0, 0)","(0, 0)","(0, 0)","(0, 1)","(1, 0)","(0, 0)","(0, 0)"
interactor,183,9.165180039716732,0.0441293575725519,0.0,135_bottom_r,False,,,3.8670234999153763,True,"[0.0441293575725519, 0.0441293575725519, 0.0441293575725519]",True,False,darker,,0.6996677999850363,left,right,"(0, 0)","(1, 1)","(0, 0)","(0, 0)","(1, 0)","(0, 1)","(0, 0)","(0, 0)"
empty,184,9.635974388770245,0.23941382558301438,0.168,none_d,True,3.5745754000963643,right,3.8403411000035703,True,"[0.4074138255830144, 0.4074138255830144, 0.4074138255830144]",False,False,lighter,True,0.534641700098291,up,left,"(0, 0)","(0, 0)","(1, 0)","(0, 1)","(0, 0)","(0, 0)","(1, 0)","(0, 1)"
interactor,185,9.515940890651096,0.6151967389739555,0.168,135_top_u,False,,,3.857268499908969,True,"[0.7831967389739556, 0.7831967389739556, 0.7831967389739556]",True,False,lighter,True,0.6840016000205651,down,up,"(1, 1)","(0, 0)","(0, 0)","(0, 0)","(0, 1)","(1, 0)","(0, 0)","(0, 0)"
interactor,186,9.797549413192701,0.16405970472657222,-0.168,45_bottom_d,False,,,3.8662856000009924,True,"[-0.003940295273427791, -0.003940295273427791, -0.003940295273427791]",True,False,darker,True,0.46587150008417666,up,down,"(0, 0)","(0, 0)","(1, 1)","(0, 0)","(0, 0)","(1, 0)","(0, 1)","(0, 0)"
interactor,187,9.331986752882466,0.5713334494464927,-0.335,135_bottom_r,True,3.573285299935378,,3.840521299978718,True,"[0.23633344944649265, 0.23633344944649265, 0.23633344944649265]",False,True,darker,True,0.4684308000141755,left,up,"(0, 1)","(1, 0)","(0, 0)","(0, 0)","(1, 1)","(0, 0)","(0, 0)","(0, 0)"
empty,188,9.021786827651207,0.031999648782020856,-0.168,none_l,True,3.5745902000926435,left,3.841636900091544,True,"[-0.13600035121797915, -0.13600035121797915, -0.13600035121797915]",False,False,lighter,False,0.46620609995443374,right,down,"(0, 0)","(0, 0)","(0, 1)","(1, 0)","(0, 0)","(0, 0)","(0, 1)","(1, 0)"
interactor,189,9.143427887596895,0.330906992547896,-0.335,45_bottom_l,True,3.5829106000019237,,3.8502706999424845,True,"[-0.004093007452104003, -0.004093007452104003, -0.004093007452104003]",False,True,darker,True,0.5156776000512764,right,up,"(0, 1)","(0, 0)","(0, 0)","(1, 0)","(1, 1)","(0, 0)","(0, 0)","(0, 0)"
interactor,190,9.953358075223132,0.1756058629967264,0.168,135_top_u,True,3.574192599975504,,3.8585970000131056,True,"[0.3436058629967264, 0.3436058629967264, 0.3436058629967264]",False,True,lighter,True,0.4158502999925986,down,right,"(1, 0)","(0, 1)","(0, 0)","(0, 0)","(0, 0)","(1, 1)","(0, 0)","(0, 0)"
interactor,191,9.441210961362804,0.46826550690248814,0.168,135_top_l,True,3.5832842000527307,,3.8496748000616208,True,"[0.6362655069024882, 0.6362655069024882, 0.6362655069024882]",False,True,space,,,right,down,"(0, 0)","(0, 0)","(0, 1)","(1, 0)","(0, 0)","(0, 0)","(1, 1)","(0, 0)"
empty,192,9.632749184454099,0.14579515468179202,0.0,none_u,True,3.573967200005427,right,3.840694300015457,True,"[0.14579515468179202, 0.14579515468179202, 0.14579515468179202]",False,False,lighter,,0.5681852999841794,down,right,"(1, 0)","(0, 1)","(0, 0)","(0, 0)","(1, 0)","(0, 1)","(0, 0)","(0, 0)"
empty,193,9.180148134867487,-0.1977914291865592,-0.168,none_l,True,3.574303700006567,right,3.8420527999987826,True,"[-0.3657914291865592, -0.3657914291865592, -0.3657914291865592]",False,False,darker,True,0.4672902000602335,right,up,"(0, 1)","(0, 0)","(0, 0)","(1, 0)","(0, 1)","(0, 0)","(0, 0)","(1, 0)"
interactor,194,9.37030087991645,-0.021794346620220145,0.335,45_top_r,False,,,3.865757600055076,True,"[0.3132056533797799, 0.3132056533797799, 0.3132056533797799]",True,False,lighter,True,0.46721659996546805,left,right,"(0, 0)","(1, 1)","(0, 0)","(0, 0)","(0, 0)","(0, 1)","(1, 0)","(0, 0)"
empty,195,9.27955816092022,0.15603916275531715,-0.168,none_u,False,,,3.8575031999498606,True,"[-0.01196083724468286, -0.01196083724468286, -0.01196083724468286]",True,True,darker,True,0.5013667000457644,down,up,"(1, 1)","(0, 0)","(0, 0)","(0, 0)","(1, 1)","(0, 0)","(0, 0)","(0, 0)"
empty,196,9.791333705892054,0.07569155553801225,-0.335,none_u,True,3.5737803999800235,left,3.840433699893765,True,"[-0.25930844446198775, -0.25930844446198775, -0.25930844446198775]",False,False,darker,True,0.552340800059028,down,left,"(1, 0)","(0, 0)","(0, 0)","(0, 1)","(1, 0)","(0, 0)","(0, 0)","(0, 1)"
empty,197,9.385940705794193,0.2657500882744947,0.168,none_l,True,3.5839673000155017,left,3.850841399980709,True,"[0.4337500882744947, 0.4337500882744947, 0.4337500882744947]",False,False,lighter,True,0.44945230009034276,right,down,"(0, 0)","(0, 0)","(0, 1)","(1, 0)","(0, 0)","(0, 0)","(0, 1)","(1, 0)"
interactor,198,9.800138333114758,0.12086360835303421,-0.335,135_top_u,False,,,3.8574861000524834,True,"[-0.2141363916469658, -0.2141363916469658, -0.2141363916469658]",True,False,darker,True,0.45073659997433424,down,up,"(1, 1)","(0, 0)","(0, 0)","(0, 0)","(0, 1)","(1, 0)","(0, 0)","(0, 0)"
empty,199,9.134304592379818,-0.013687321210915454,0.0,none_r,True,3.5828736000694335,left,3.8498731000581756,True,"[-0.013687321210915454, -0.013687321210915454, -0.013687321210915454]",False,False,darker,,0.5157477000029758,left,up,"(0, 1)","(1, 0)","(0, 0)","(0, 0)","(0, 1)","(1, 0)","(0, 0)","(0, 0)"
empty,200,9.410593423862014,-0.014153789126613608,0.168,none_u,False,,,3.857778499950655,True,"[0.1538462108733864, 0.1538462108733864, 0.1538462108733864]",True,True,darker,False,0.5671097000595182,down,up,"(1, 1)","(0, 0)","(0, 0)","(0, 0)","(1, 1)","(0, 0)","(0, 0)","(0, 0)"
interactor,201,9.274851466270485,0.2973195416851413,0.0,135_bottom_r,False,,,3.860737400013022,True,"[0.2973195416851413, 0.2973195416851413, 0.2973195416851413]",True,False,space,,,left,right,"(0, 0)","(1, 1)","(0, 0)","(0, 0)","(1, 0)","(0, 1)","(0, 0)","(0, 0)"
empty,202,9.537006731070086,0.007184503762206473,0.0,none_l,True,3.583271300070919,left,3.848967400030233,True,"[0.007184503762206473, 0.007184503762206473, 0.007184503762206473]",False,False,lighter,,0.43548520002514124,right,down,"(0, 0)","(0, 0)","(0, 1)","(1, 0)","(0, 0)","(0, 0)","(0, 1)","(1, 0)"
empty,203,9.535336826690846,0.11291749295849435,0.0,none_r,False,,,3.8592599999392405,True,"[0.11291749295849435, 0.11291749295849435, 0.11291749295849435]",True,True,darker,,0.43248489999677986,left,right,"(0, 0)","(1, 1)","(0, 0)","(0, 0)","(0, 0)","(1, 1)","(0, 0)","(0, 0)"
empty,204,9.561368832837257,0.6497993684057487,0.335,none_u,True,3.5759637999581173,right,3.8417958999052644,True,"[0.9847993684057488, 0.9847993684057488, 0.9847993684057488]",False,False,lighter,True,0.5008095999946818,down,right,"(1, 0)","(0, 1)","(0, 0)","(0, 0)","(1, 0)","(0, 1)","(0, 0)","(0, 0)"
interactor,205,9.37352661803485,0.14835212697152053,0.168,135_bottom_r,False,,,3.866247299942188,True,"[0.31635212697152054, 0.31635212697152054, 0.31635212697152054]",True,False,lighter,True,0.44906060001812875,left,right,"(0, 0)","(1, 1)","(0, 0)","(0, 0)","(1, 0)","(0, 1)","(0, 0)","(0, 0)"
empty,206,9.99885748840549,0.3180832356930672,0.0,none_d,True,3.58261219994165,right,3.8667586999945343,True,"[0.3180832356930672, 0.3180832356930672, 0.3180832356930672]",False,False,lighter,,0.4833594999508932,up,left,"(0, 0)","(0, 0)","(1, 0)","(0, 1)","(0, 0)","(0, 0)","(1, 0)","(0, 1)"
empty,207,9.531221255919924,0.17822187993408217,0.335,none_r,False,,,3.857362399925478,True,"[0.5132218799340822, 0.5132218799340822, 0.5132218799340822]",True,True,lighter,True,0.3825905000558123,left,right,"(0, 0)","(1, 1)","(0, 0)","(0, 0)","(0, 0)","(1, 1)","(0, 0)","(0, 0)"
interactor,208,8.841475220357498,0.2439010340619433,0.0,45_bottom_l,False,,,3.8582828999496996,True,"[0.2439010340619433, 0.2439010340619433, 0.2439010340619433]",True,False,darker,,0.6834455999778584,right,left,"(0, 0)","(0, 0)","(0, 0)","(1, 1)","(1, 0)","(0, 0)","(0, 0)","(0, 1)"
empty,209,10.025176212421368,0.1828120494865704,-0.335,none_u,False,,,3.8661485000047833,True,"[-0.15218795051342962, -0.15218795051342962, -0.15218795051342962]",True,True,darker,True,0.5676775999600068,down,up,"(1, 1)","(0, 0)","(0, 0)","(0, 0)","(1, 1)","(0, 0)","(0, 0)","(0, 0)"
interactor,210,9.23080360699133,0.24712618264451358,-0.335,45_top_r,True,3.581136900000274,,3.8494039999786764,True,"[-0.08787381735548644, -0.08787381735548644, -0.08787381735548644]",False,True,darker,True,0.5986102999886498,left,down,"(0, 0)","(1, 0)","(0, 1)","(0, 0)","(0, 0)","(0, 0)","(1, 1)","(0, 0)"
interactor,211,9.41325335255123,-0.008001057817032059,0.0,135_bottom_d,False,,,3.857069000019692,True,"[-0.008001057817032059, -0.008001057817032059, -0.008001057817032059]",True,False,darker,,0.5176406999817118,up,down,"(0, 0)","(0, 0)","(1, 1)","(0, 0)","(0, 0)","(0, 0)","(0, 1)","(1, 0)"
interactor,212,9.525736995488636,0.13428246949351544,-0.335,135_top_l,True,3.5827707999851555,,3.8478227000450715,True,"[-0.20071753050648458, -0.20071753050648458, -0.20071753050648458]",False,True,darker,True,0.4672075000125915,right,down,"(0, 0)","(0, 0)","(0, 1)","(1, 0)","(0, 0)","(0, 0)","(1, 1)","(0, 0)"
interactor,213,9.404937174469742,-0.13446519423278616,-0.168,45_bottom_l,True,3.5835193999810144,,3.8500954000046477,True,"[-0.30246519423278617, -0.30246519423278617, -0.30246519423278617]",False,True,darker,True,0.46701579994987696,right,up,"(0, 1)","(0, 0)","(0, 0)","(1, 0)","(1, 1)","(0, 0)","(0, 0)","(0, 0)"
empty,214,9.613296802931819,0.3301309933177188,0.0,none_l,True,3.5829571000067517,right,3.849961999920197,True,"[0.3301309933177188, 0.3301309933177188, 0.3301309933177188]",False,False,darker,,0.43401020008604974,right,up,"(0, 1)","(0, 0)","(0, 0)","(1, 0)","(0, 1)","(0, 0)","(0, 0)","(1, 0)"
empty,215,9.458388975702183,0.1563699692867217,0.168,none_u,False,,,3.867305999970995,True,"[0.3243699692867217, 0.3243699692867217, 0.3243699692867217]",True,True,darker,False,0.617448200006038,down,up,"(1, 1)","(0, 0)","(0, 0)","(0, 0)","(1, 1)","(0, 0)","(0, 0)","(0, 0)"
interactor,216,9.648968771080977,-0.005591786032269869,0.335,45_top_u,False,,,3.8666729000397027,True,"[0.3294082139677301, 0.3294082139677301, 0.3294082139677301]",True,False,lighter,True,0.6506187999621034,down,up,"(1, 1)","(0, 0)","(0, 0)","(0, 0)","(0, 1)","(0, 0)","(0, 0)","(1, 0)"
empty,217,9.700946428899067,0.3437056390271612,0.168,none_d,True,3.573950899997726,right,3.840735200094059,True,"[0.5117056390271613, 0.5117056390271613, 0.5117056390271613]",False,False,lighter,True,0.4165477999486029,up,left,"(0, 0)","(0, 0)","(1, 0)","(0, 1)","(0, 0)","(0, 0)","(1, 0)","(0, 1)"
interactor,218,9.23935568527583,0.06969081272722864,0.0,135_top_l,True,3.5813831000123173,,3.8486064000753686,True,"[0.06969081272722864, 0.06969081272722864, 0.06969081272722864]",False,True,lighter,,0.6829094999702647,right,down,"(0, 0)","(0, 0)","(0, 1)","(1, 0)","(0, 0)","(0, 0)","(1, 1)","(0, 0)"
empty,219,9.476893252920275,0.024420332456403238,0.168,none_r,False,,,3.8646719000535086,True,"[0.19242033245640325, 0.19242033245640325, 0.19242033245640325]",True,True,lighter,True,0.466631899937056,left,right,"(0, 0)","(1, 1)","(0, 0)","(0, 0)","(0, 0)","(1, 1)","(0, 0)","(0, 0)"
empty,220,9.418323802590166,0.09057522081295276,-0.335,none_u,True,3.575029099942185,right,3.84206679998897,True,"[-0.24442477918704725, -0.24442477918704725, -0.24442477918704725]",False,False,darker,True,0.517273599980399,down,right,"(1, 0)","(0, 1)","(0, 0)","(0, 0)","(1, 0)","(0, 1)","(0, 0)","(0, 0)"
empty,221,9.308423885815314,0.22664913715783186,-0.168,none_u,True,3.583970700041391,right,3.8508568999823183,True,"[0.05864913715783185, 0.05864913715783185, 0.05864913715783185]",False,False,lighter,False,0.48341970006003976,down,right,"(1, 0)","(0, 1)","(0, 0)","(0, 0)","(1, 0)","(0, 1)","(0, 0)","(0, 0)"
empty,222,9.843812258369674,0.34844307775423206,0.335,none_d,True,3.58280219999142,right,3.865682600066066,True,"[0.6834430777542321, 0.6834430777542321, 0.6834430777542321]",False,False,lighter,True,0.4342138000065461,up,left,"(0, 0)","(0, 0)","(1, 0)","(0, 1)","(0, 0)","(0, 0)","(1, 0)","(0, 1)"
interactor,223,9.499446069218816,0.07458137216516969,-0.335,45_top_r,False,,,3.8590061999857426,True,"[-0.26041862783483033, -0.26041862783483033, -0.26041862783483033]",True,False,darker,True,0.49879280000459403,left,right,"(0, 0)","(1, 1)","(0, 0)","(0, 0)","(0, 0)","(0, 1)","(1, 0)","(0, 0)"
interactor,224,9.580493757172682,0.31516165937737545,0.335,135_bottom_r,False,,,3.8573072999715805,True,"[0.6501616593773755, 0.6501616593773755, 0.6501616593773755]",True,False,lighter,True,0.467303300043568,left,right,"(0, 0)","(1, 1)","(0, 0)","(0, 0)","(1, 0)","(0, 1)","(0, 0)","(0, 0)"
empty,225,9.712867980310312,0.0854413743726679,0.0,none_r,True,3.5819066000403836,right,3.848959199967794,True,"[0.0854413743726679, 0.0854413743726679, 0.0854413743726679]",False,False,lighter,,0.43379010003991425,left,down,"(0, 0)","(1, 0)","(0, 1)","(0, 0)","(0, 0)","(1, 0)","(0, 1)","(0, 0)"
interactor,226,9.469362325773801,0.4412541526594753,0.168,135_top_l,False,,,3.866829799953848,True,"[0.6092541526594754, 0.6092541526594754, 0.6092541526594754]",True,False,lighter,True,0.5504610000643879,right,left,"(0, 0)","(0, 0)","(0, 0)","(1, 1)","(0, 0)","(0, 0)","(1, 0)","(0, 1)"
empty,227,9.472059964049135,-0.035099568387737756,0.335,none_l,False,,,3.8579736000392586,True,"[0.29990043161226226, 0.29990043161226226, 0.29990043161226226]",True,True,lighter,True,0.46709319995716214,right,left,"(0, 0)","(0, 0)","(0, 0)","(1, 1)","(0, 0)","(0, 0)","(0, 0)","(1, 1)"
empty,228,9.43442295121475,0.284140092122434,0.335,none_d,False,,,3.8655786000890657,True,"[0.619140092122434, 0.619140092122434, 0.619140092122434]",True,True,lighter,True,0.3840524998959154,up,down,"(0, 0)","(0, 0)","(1, 1)","(0, 0)","(0, 0)","(0, 0)","(1, 1)","(0, 0)"
empty,229,9.539419555669326,0.2549868457422407,0.0,none_l,True,3.5749178000260144,left,3.8427975999657065,True,"[0.2549868457422407, 0.2549868457422407, 0.2549868457422407]",False,False,lighter,,0.499447499983944,right,down,"(0, 0)","(0, 0)","(0, 1)","(1, 0)","(0, 0)","(0, 0)","(0, 1)","(1, 0)"
empty,230,9.614373144120554,0.02072724970666459,0.0,none_d,False,,,3.866294299950823,True,"[0.02072724970666459, 0.02072724970666459, 0.02072724970666459]",True,True,lighter,,0.43526160006877035,up,down,"(0, 0)","(0, 0)","(1, 1)","(0, 0)","(0, 0)","(0, 0)","(1, 1)","(0, 0)"
empty,231,9.29099046965752,0.0838544334711949,0.168,none_u,True,3.5742255999939516,right,3.8412898000096902,True,"[0.2518544334711949, 0.2518544334711949, 0.2518544334711949]",False,False,space,,,down,right,"(1, 0)","(0, 1)","(0, 0)","(0, 0)","(1, 0)","(0, 1)","(0, 0)","(0, 0)"
interactor,232,9.739976509385025,0.1406863399196998,-0.168,45_top_r,True,3.5822559000225738,,3.8497467000270262,True,"[-0.0273136600803002, -0.0273136600803002, -0.0273136600803002]",False,True,darker,True,0.4835664000129327,left,down,"(0, 0)","(1, 0)","(0, 1)","(0, 0)","(0, 0)","(0, 0)","(1, 1)","(0, 0)"
empty,233,9.553184426767334,0.34444583265282336,0.168,none_u,True,3.5827441998990253,right,3.847971399896778,True,"[0.5124458326528234, 0.5124458326528234, 0.5124458326528234]",False,False,lighter,True,0.7170371999964118,down,right,"(1, 0)","(0, 1)","(0, 0)","(0, 0)","(1, 0)","(0, 1)","(0, 0)","(0, 0)"
empty,234,9.55098367107697,0.10460639420977502,-0.335,none_r,False,,,3.866464199963957,True,"[-0.230393605790225, -0.230393605790225, -0.230393605790225]",True,True,darker,True,0.5163293000077829,left,right,"(0, 0)","(1, 1)","(0, 0)","(0, 0)","(0, 0)","(1, 1)","(0, 0)","(0, 0)"
empty,235,9.28038423062317,0.1457671657424949,-0.335,none_u,False,,,3.8667002000147477,True,"[-0.18923283425750512, -0.18923283425750512, -0.18923283425750512]",True,True,darker,True,0.4994429999496788,down,up,"(1, 1)","(0, 0)","(0, 0)","(0, 0)","(1, 1)","(0, 0)","(0, 0)","(0, 0)"
empty,236,9.483140409976627,0.12600257694150113,0.335,none_u,True,3.5730376000283286,left,3.839730800013058,True,"[0.46100257694150115, 0.46100257694150115, 0.46100257694150115]",False,False,lighter,True,0.4852348000276834,down,left,"(1, 0)","(0, 0)","(0, 0)","(0, 1)","(1, 0)","(0, 0)","(0, 0)","(0, 1)"
empty,237,9.441659985492281,0.468307872516764,0.335,none_l,True,3.5738792999181896,left,3.8407797999680042,True,"[0.8033078725167639, 0.8033078725167639, 0.8033078725167639]",False,False,lighter,True,0.5003351999912411,right,down,"(0, 0)","(0, 0)","(0, 1)","(1, 0)","(0, 0)","(0, 0)","(0, 1)","(1, 0)"
interactor,238,9.690699767547356,0.1363650503890183,0.335,45_top_u,True,3.5742584000108764,,3.8424438999500126,True,"[0.4713650503890183, 0.4713650503890183, 0.4713650503890183]",False,True,lighter,True,0.5334275000495836,down,left,"(1, 0)","(0, 0)","(0, 0)","(0, 1)","(0, 0)","(0, 0)","(0, 0)","(1, 1)"
interactor,239,9.619250349060591,0.2690963248535422,-0.168,45_top_r,False,,,3.8661384999286383,True,"[0.10109632485354217, 0.10109632485354217, 0.10109632485354217]",True,False,lighter,False,0.43380170001182705,left,right,"(0, 0)","(1, 1)","(0, 0)","(0, 0)","(0, 0)","(0, 1)","(1, 0)","(0, 0)"
empty,240,9.371977809149161,0.15393862882161893,0.335,none_u,False,,,3.8578239999478683,True,"[0.488938628821619, 0.488938628821619, 0.488938628821619]",True,True,lighter,True,0.5341347000794485,down,up,"(1, 1)","(0, 0)","(0, 0)","(0, 0)","(1, 1)","(0, 0)","(0, 0)","(0, 0)"
empty,241,9.080418826714999,0.006367819374394762,-0.168,none_u,True,3.5842425000155345,left,3.849371899967082,True,"[-0.16163218062560525, -0.16163218062560525, -0.16163218062560525]",False,False,darker,True,0.4682953000301495,down,left,"(1, 0)","(0, 0)","(0, 0)","(0, 1)","(1, 0)","(0, 0)","(0, 0)","(0, 1)"
interactor,242,9.640066648358566,0.28510038204294275,-0.168,135_bottom_d,True,3.574371699942276,,3.84191339998506,True,"[0.11710038204294274, 0.11710038204294274, 0.11710038204294274]",False,True,darker,True,0.6992958999471739,up,left,"(0, 0)","(0, 0)","(1, 0)","(0, 1)","(0, 0)","(0, 0)","(0, 0)","(1, 1)"
interactor,243,9.276103139344762,0.09356392454933005,-0.335,135_bottom_r,True,3.5816791000543162,,3.8489396000513807,True,"[-0.24143607545066997, -0.24143607545066997, -0.24143607545066997]",False,True,darker,True,0.5678419000469148,left,up,"(0, 1)","(1, 0)","(0, 0)","(0, 0)","(1, 1)","(0, 0)","(0, 0)","(0, 0)"
interactor,244,9.591512683240506,-0.020249661189873397,0.168,135_bottom_d,True,3.5754732999484986,,3.8415826000273228,True,"[0.1477503388101266, 0.1477503388101266, 0.1477503388101266]",False,True,lighter,True,0.8170119000133127,up,left,"(0, 0)","(0, 0)","(1, 0)","(0, 1)","(0, 0)","(0, 0)","(0, 0)","(1, 1)"
interactor,245,9.659273198829718,0.501322941465275,0.0,45_top_r,True,3.5751517999451607,,3.8415951000060886,True,"[0.501322941465275, 0.501322941465275, 0.501322941465275]",False,True,lighter,,0.5170153999933973,left,down,"(0, 0)","(1, 0)","(0, 1)","(0, 0)","(0, 0)","(0, 0)","(1, 1)","(0, 0)"
empty,246,9.78963121883504,-0.008700396719552334,-0.335,none_r,True,3.5752160999691114,right,3.8421619998989627,True,"[-0.3437003967195523, -0.3437003967195523, -0.3437003967195523]",False,False,darker,True,0.567181900027208,left,down,"(0, 0)","(1, 0)","(0, 1)","(0, 0)","(0, 0)","(1, 0)","(0, 1)","(0, 0)"
empty,247,9.742370927508937,0.25899064432334,0.0,none_r,True,3.5812639000359923,left,3.848370000021532,True,"[0.25899064432334, 0.25899064432334, 0.25899064432334]",False,False,lighter,,0.6182748000137508,left,up,"(0, 1)","(1, 0)","(0, 0)","(0, 0)","(0, 1)","(1, 0)","(0, 0)","(0, 0)"
interactor,248,9.446340075020023,-0.1071548926067252,0.0,45_bottom_d,False,,,3.8651179999578744,True,"[-0.1071548926067252, -0.1071548926067252, -0.1071548926067252]",True,False,darker,,0.551776000065729,up,down,"(0, 0)","(0, 0)","(1, 1)","(0, 0)","(0, 0)","(1, 0)","(0, 1)","(0, 0)"
interactor,249,9.398048716904771,-0.05483298133140865,0.0,135_top_u,False,,,3.857313699903898,True,"[-0.05483298133140865, -0.05483298133140865, -0.05483298133140865]",True,False,darker,,0.5334899000590667,down,up,"(1, 1)","(0, 0)","(0, 0)","(0, 0)","(0, 1)","(1, 0)","(0, 0)","(0, 0)"
interactor,250,9.788512013259028,0.11328330228542553,0.168,135_bottom_d,True,3.5836538000730798,,3.8498098000418395,True,"[0.28128330228542553, 0.28128330228542553, 0.28128330228542553]",False,True,lighter,True,0.4839337000157684,up,left,"(0, 0)","(0, 0)","(1, 0)","(0, 1)","(0, 0)","(0, 0)","(0, 0)","(1, 1)"
interactor,251,9.912399538863934,-0.35753276890024743,0.168,45_top_u,False,,,3.8656429999973625,True,"[-0.18953276890024742, -0.18953276890024742, -0.18953276890024742]",True,False,darker,False,0.6008488000370562,down,up,"(1, 1)","(0, 0)","(0, 0)","(0, 0)","(0, 1)","(0, 0)","(0, 0)","(1, 0)"
empty,252,9.560345392812096,0.10239436250995516,-0.335,none_r,False,,,3.8585312999784946,True,"[-0.23260563749004487, -0.23260563749004487, -0.23260563749004487]",True,True,darker,True,0.4493600999703631,left,right,"(0, 0)","(1, 1)","(0, 0)","(0, 0)","(0, 0)","(1, 1)","(0, 0)","(0, 0)"
empty,253,9.771212497562734,0.4327888820025979,0.335,none_d,False,,,3.8573412999976426,True,"[0.767788882002598, 0.767788882002598, 0.767788882002598]",True,True,lighter,True,0.40040409995708615,up,down,"(0, 0)","(0, 0)","(1, 1)","(0, 0)","(0, 0)","(0, 0)","(1, 1)","(0, 0)"
interactor,254,9.266575837751358,0.2883704632885148,0.335,135_bottom_d,False,,,3.8665499000344425,True,"[0.6233704632885149, 0.6233704632885149, 0.6233704632885149]",True,False,lighter,True,0.3991674999706447,up,down,"(0, 0)","(0, 0)","(1, 1)","(0, 0)","(0, 0)","(0, 0)","(0, 1)","(1, 0)"
empty,255,9.30377856877504,0.35806030666909194,-0.168,none_d,False,,,3.857555800001137,True,"[0.19006030666909193, 0.19006030666909193, 0.19006030666909193]",True,True,lighter,False,0.7167141000973061,up,down,"(0, 0)","(0, 0)","(1, 1)","(0, 0)","(0, 0)","(0, 0)","(1, 1)","(0, 0)"
interactor,256,10.05633245995877,0.11211769873026306,-0.335,45_bottom_d,False,,,3.8660428000148386,True,"[-0.22288230126973696, -0.22288230126973696, -0.22288230126973696]",True,False,darker,True,0.5010095000034198,up,down,"(0, 0)","(0, 0)","(1, 1)","(0, 0)","(0, 0)","(1, 0)","(0, 1)","(0, 0)"
interactor,257,9.239271009053969,0.4944315304842182,-0.335,135_bottom_r,True,3.5812901000026613,,3.848320799996145,True,"[0.15943153048421815, 0.15943153048421815, 0.15943153048421815]",False,True,darker,True,0.5517160999588668,left,up,"(0, 1)","(1, 0)","(0, 0)","(0, 0)","(1, 1)","(0, 0)","(0, 0)","(0, 0)"
empty,258,9.793946626253582,0.3697866655270343,-0.168,none_d,True,3.574225199990906,right,3.841013899887912,True,"[0.2017866655270343, 0.2017866655270343, 0.2017866655270343]",False,False,lighter,False,0.7171561000868678,up,left,"(0, 0)","(0, 0)","(1, 0)","(0, 1)","(0, 0)","(0, 0)","(1, 0)","(0, 1)"
interactor,259,9.720803419983188,-0.12739958940403903,0.168,135_bottom_d,False,,,3.866545299999416,True,"[0.04060041059596098, 0.04060041059596098, 0.04060041059596098]",True,False,darker,False,0.6513100999873132,up,down,"(0, 0)","(0, 0)","(1, 1)","(0, 0)","(0, 0)","(0, 0)","(0, 1)","(1, 0)"
interactor,260,9.52718672632152,0.11974961828874246,0.168,135_top_u,False,,,3.8587114999536425,True,"[0.28774961828874246, 0.28774961828874246, 0.28774961828874246]",True,False,darker,False,0.7995712000411004,down,up,"(1, 1)","(0, 0)","(0, 0)","(0, 0)","(0, 1)","(1, 0)","(0, 0)","(0, 0)"
empty,261,9.177267988045632,0.18045022417946166,0.335,none_r,True,3.5841262000612915,left,3.850971500040032,True,"[0.5154502241794616, 0.5154502241794616, 0.5154502241794616]",False,False,lighter,True,0.46746379998512566,left,up,"(0, 1)","(1, 0)","(0, 0)","(0, 0)","(0, 1)","(1, 0)","(0, 0)","(0, 0)"
empty,262,9.754460370598288,0.11940247075490427,0.335,none_r,False,,,3.8673351999605075,True,"[0.4544024707549043, 0.4544024707549043, 0.4544024707549043]",True,True,lighter,True,0.46631000004708767,left,right,"(0, 0)","(1, 1)","(0, 0)","(0, 0)","(0, 0)","(1, 1)","(0, 0)","(0, 0)"
empty,263,9.579290230056534,0.06565516689640465,-0.168,none_d,True,3.5736415000865236,right,3.840159200015478,True,"[-0.10234483310359536, -0.10234483310359536, -0.10234483310359536]",False,False,darker,True,0.5508009999757633,up,left,"(0, 0)","(0, 0)","(1, 0)","(0, 1)","(0, 0)","(0, 0)","(1, 0)","(0, 1)"
interactor,264,9.08588707082975,-0.3380382079893851,0.0,45_bottom_l,False,,,3.8580259999725968,True,"[-0.3380382079893851, -0.3380382079893851, -0.3380382079893851]",True,False,darker,,0.5332430000416934,right,left,"(0, 0)","(0, 0)","(0, 0)","(1, 1)","(1, 0)","(0, 0)","(0, 0)","(0, 1)"
empty,265,9.508732557413806,0.0037246091731584496,0.335,none_l,False,,,3.856114900088869,True,"[0.3387246091731585, 0.3387246091731585, 0.3387246091731585]",True,True,lighter,True,0.4009192999219522,right,left,"(0, 0)","(0, 0)","(0, 0)","(1, 1)","(0, 0)","(0, 0)","(0, 0)","(1, 1)"
interactor,266,9.897821538169303,0.17769670751000644,-0.168,135_bottom_r,False,,,3.8583905999548733,True,"[0.009696707510006425, 0.009696707510006425, 0.009696707510006425]",True,False,darker,True,0.6826967999804765,left,right,"(0, 0)","(1, 1)","(0, 0)","(0, 0)","(1, 0)","(0, 1)","(0, 0)","(0, 0)"
interactor,267,9.51623084846923,-0.01575455004984616,0.0,135_top_l,True,3.5741573000559583,,3.841485899989493,True,"[-0.01575455004984616, -0.01575455004984616, -0.01575455004984616]",False,True,lighter,,0.3843334000557661,right,down,"(0, 0)","(0, 0)","(0, 1)","(1, 0)","(0, 0)","(0, 0)","(1, 1)","(0, 0)"
interactor,268,9.645913014452733,0.6084734397217287,-0.335,45_bottom_d,False,,,3.8578177000163123,True,"[0.2734734397217287, 0.2734734397217287, 0.2734734397217287]",True,False,lighter,False,0.5499872999498621,up,down,"(0, 0)","(0, 0)","(1, 1)","(0, 0)","(0, 0)","(1, 0)","(0, 1)","(0, 0)"
interactor,269,9.489694143906968,0.13409117182991329,-0.335,135_top_l,True,3.5735970999812707,,3.8417205999139696,True,"[-0.20090882817008673, -0.20090882817008673, -0.20090882817008673]",False,True,darker,True,0.49988300004042685,right,down,"(0, 0)","(0, 0)","(0, 1)","(1, 0)","(0, 0)","(0, 0)","(1, 1)","(0, 0)"
interactor,270,9.879747992823232,0.2296166933436738,-0.168,135_bottom_d,False,,,3.8573105999967083,True,"[0.061616693343673784, 0.061616693343673784, 0.061616693343673784]",True,False,darker,True,0.48430170002393425,up,down,"(0, 0)","(0, 0)","(1, 1)","(0, 0)","(0, 0)","(0, 0)","(0, 1)","(1, 0)"
interactor,271,9.098572695223998,0.3093834616631497,0.0,45_top_u,True,3.573925400036387,,3.8400077000260353,True,"[0.3093834616631497, 0.3093834616631497, 0.3093834616631497]",False,True,lighter,,0.4855989000061527,down,left,"(1, 0)","(0, 0)","(0, 0)","(0, 1)","(0, 0)","(0, 0)","(0, 0)","(1, 1)"
interactor,272,9.704861074913108,0.23803278672965225,-0.335,45_bottom_l,False,,,3.8580889999866486,True,"[-0.09696721327034777, -0.09696721327034777, -0.09696721327034777]",True,False,darker,True,0.4005640000104904,right,left,"(0, 0)","(0, 0)","(0, 0)","(1, 1)","(1, 0)","(0, 0)","(0, 0)","(0, 1)"
empty,273,9.63398527223364,-0.07322778946999417,0.168,none_l,False,,,3.8575480000581592,True,"[0.09477221053000584, 0.09477221053000584, 0.09477221053000584]",True,True,lighter,True,0.5997159000253305,right,left,"(0, 0)","(0, 0)","(0, 0)","(1, 1)","(0, 0)","(0, 0)","(0, 0)","(1, 1)"
interactor,274,10.021702963656622,0.08033480253898569,-0.168,45_top_u,True,3.5747995000565425,,3.857321099960245,True,"[-0.08766519746101432, -0.08766519746101432, -0.08766519746101432]",False,True,darker,True,0.4336382000474259,down,left,"(1, 0)","(0, 0)","(0, 0)","(0, 1)","(0, 0)","(0, 0)","(0, 0)","(1, 1)"
empty,275,9.561774849755937,0.4016283645875621,0.335,none_d,False,,,3.857376500032842,True,"[0.7366283645875622, 0.7366283645875622, 0.7366283645875622]",True,True,lighter,True,0.39947189996019006,up,down,"(0, 0)","(0, 0)","(1, 1)","(0, 0)","(0, 0)","(0, 0)","(1, 1)","(0, 0)"
empty,276,9.493736721790969,0.022636472402272595,0.168,none_u,True,3.5758399000624195,left,3.8423209000611678,True,"[0.1906364724022726, 0.1906364724022726, 0.1906364724022726]",False,False,lighter,True,0.3833570999559015,down,left,"(1, 0)","(0, 0)","(0, 0)","(0, 1)","(1, 0)","(0, 0)","(0, 0)","(0, 1)"
empty,277,9.700327345350532,0.2789792661971904,0.168,none_r,True,3.574342199950479,left,3.841420399956405,True,"[0.4469792661971904, 0.4469792661971904, 0.4469792661971904]",False,False,darker,False,0.550856800051406,left,up,"(0, 1)","(1, 0)","(0, 0)","(0, 0)","(0, 1)","(1, 0)","(0, 0)","(0, 0)"
interactor,278,9.827109330772684,0.36704566629164365,0.0,135_bottom_d,True,3.573217700002715,,3.85782479995396,True,"[0.36704566629164365, 0.36704566629164365, 0.36704566629164365]",False,True,lighter,,0.46729469997808337,up,left,"(0, 0)","(0, 0)","(1, 0)","(0, 1)","(0, 0)","(0, 0)","(0, 0)","(1, 1)"
empty,279,9.949075657330354,0.16539492899416808,-0.335,none_l,True,3.5740827000699937,right,3.85802380007226,True,"[-0.16960507100583194, -0.16960507100583194, -0.16960507100583194]",False,False,darker,True,0.48395619995426387,right,up,"(0, 1)","(0, 0)","(0, 0)","(1, 0)","(0, 1)","(0, 0)","(0, 0)","(1, 0)"
interactor,280,9.682090304196349,0.21602273849184328,0.335,135_bottom_d,True,3.5739890000550076,,3.841381600010209,True,"[0.5510227384918434, 0.5510227384918434, 0.5510227384918434]",False,True,lighter,True,0.4500838000094518,up,left,"(0, 0)","(0, 0)","(1, 0)","(0, 1)","(0, 0)","(0, 0)","(0, 0)","(1, 1)"
interactor,281,9.783381539289202,0.32114812354645655,0.335,135_top_l,False,,,3.8571773999137804,True,"[0.6561481235464566, 0.6561481235464566, 0.6561481235464566]",True,False,lighter,True,0.4499215000541881,right,left,"(0, 0)","(0, 0)","(0, 0)","(1, 1)","(0, 0)","(0, 0)","(1, 0)","(0, 1)"
empty,282,9.5577748462887,0.4207310830780444,-0.335,none_u,False,,,3.857204100000672,True,"[0.08573108307804439, 0.08573108307804439, 0.08573108307804439]",True,True,darker,True,0.4012380000203848,down,up,"(1, 1)","(0, 0)","(0, 0)","(0, 0)","(1, 1)","(0, 0)","(0, 0)","(0, 0)"
interactor,283,8.995044327848698,0.287928963353019,0.168,45_bottom_d,False,,,3.857865700032562,True,"[0.455928963353019, 0.455928963353019, 0.455928963353019]",True,False,lighter,True,0.5335394999710843,up,down,"(0, 0)","(0, 0)","(1, 1)","(0, 0)","(0, 0)","(1, 0)","(0, 1)","(0, 0)"
interactor,284,9.508549852951012,0.2102817245195295,-0.168,45_bottom_d,True,3.5750562999164686,,3.8423649999313056,True,"[0.042281724519529496, 0.042281724519529496, 0.042281724519529496]",False,True,lighter,False,0.4995050000725314,up,right,"(0, 0)","(0, 1)","(1, 0)","(0, 0)","(0, 0)","(1, 1)","(0, 0)","(0, 0)"
interactor,285,9.386659094372353,0.3289396103661709,0.168,45_bottom_d,False,,,3.858319799997844,True,"[0.49693961036617096, 0.49693961036617096, 0.49693961036617096]",True,False,lighter,True,0.4680078999372199,up,down,"(0, 0)","(0, 0)","(1, 1)","(0, 0)","(0, 0)","(1, 0)","(0, 1)","(0, 0)"
interactor,286,9.276092259261928,0.10059570136155482,0.0,45_bottom_l,True,3.574380600010045,,3.840771700022742,True,"[0.10059570136155482, 0.10059570136155482, 0.10059570136155482]",False,True,darker,,0.5502130000386387,right,up,"(0, 1)","(0, 0)","(0, 0)","(1, 0)","(1, 1)","(0, 0)","(0, 0)","(0, 0)"
empty,287,9.660341498915761,0.2331549751159215,0.0,none_u,True,3.573805100051686,left,3.841801500064321,True,"[0.2331549751159215, 0.2331549751159215, 0.2331549751159215]",False,False,lighter,,0.6324505999218673,down,left,"(1, 0)","(0, 0)","(0, 0)","(0, 1)","(1, 0)","(0, 0)","(0, 0)","(0, 1)"
empty,288,9.608218265809086,0.35386365048074303,0.0,none_d,False,,,3.8570612999610603,True,"[0.35386365048074303, 0.35386365048074303, 0.35386365048074303]",True,True,darker,,0.7498335000127554,up,down,"(0, 0)","(0, 0)","(1, 1)","(0, 0)","(0, 0)","(0, 0)","(1, 1)","(0, 0)"
interactor,289,9.664897311262356,0.048393279419790214,0.335,45_top_r,False,,,3.856940899975598,True,"[0.38339327941979023, 0.38339327941979023, 0.38339327941979023]",True,False,lighter,True,0.43409830005839467,left,right,"(0, 0)","(1, 1)","(0, 0)","(0, 0)","(0, 0)","(0, 1)","(1, 0)","(0, 0)"
interactor,290,9.80181230585703,-0.07741740608535233,-0.168,45_bottom_l,False,,,3.8584643999347463,True,"[-0.24541740608535234, -0.24541740608535234, -0.24541740608535234]",True,False,darker,True,0.5343916000565514,right,left,"(0, 0)","(0, 0)","(0, 0)","(1, 1)","(1, 0)","(0, 0)","(0, 0)","(0, 1)"
empty,291,9.285571358455403,0.4982164511096915,0.168,none_u,True,3.574397600023076,left,3.842247800086625,True,"[0.6662164511096915, 0.6662164511096915, 0.6662164511096915]",False,False,lighter,True,0.4993169999215752,down,left,"(1, 0)","(0, 0)","(0, 0)","(0, 1)","(1, 0)","(0, 0)","(0, 0)","(0, 1)"
empty,292,9.812475494583452,0.23519445163983838,0.0,none_l,False,,,3.8575009999331087,True,"[0.23519445163983838, 0.23519445163983838, 0.23519445163983838]",True,True,darker,,0.6184376000892371,right,left,"(0, 0)","(0, 0)","(0, 0)","(1, 1)","(0, 0)","(0, 0)","(0, 0)","(1, 1)"
empty,293,9.334976019644019,0.36453074945245223,-0.335,none_l,False,,,3.857778000063263,True,"[0.02953074945245221, 0.02953074945245221, 0.02953074945245221]",True,True,darker,True,0.5675619000103325,right,left,"(0, 0)","(0, 0)","(0, 0)","(1, 1)","(0, 0)","(0, 0)","(0, 0)","(1, 1)"
empty,294,9.086807684777241,0.14797856997868739,0.0,none_r,False,,,3.8583118999376893,True,"[0.14797856997868739, 0.14797856997868739, 0.14797856997868739]",True,True,lighter,,0.5664802000392228,left,right,"(0, 0)","(1, 1)","(0, 0)","(0, 0)","(0, 0)","(1, 1)","(0, 0)","(0, 0)"
empty,295,9.33998731195871,0.2045548007806455,-0.335,none_r,False,,,3.8582219999516383,True,"[-0.13044519921935452, -0.13044519921935452, -0.13044519921935452]",True,True,darker,True,0.5829385000979528,left,right,"(0, 0)","(1, 1)","(0, 0)","(0, 0)","(0, 0)","(1, 1)","(0, 0)","(0, 0)"
empty,296,9.138792489895255,0.0012409027450691335,0.335,none_l,False,,,3.857509299996309,True,"[0.3362409027450691, 0.3362409027450691, 0.3362409027450691]",True,True,lighter,True,0.6005607999395579,right,left,"(0, 0)","(0, 0)","(0, 0)","(1, 1)","(0, 0)","(0, 0)","(0, 0)","(1, 1)"
empty,297,9.644823562349487,-0.08158831029924035,0.168,none_l,True,3.575170399970375,right,3.8412348000565544,True,"[0.08641168970075966, 0.08641168970075966, 0.08641168970075966]",False,False,lighter,True,0.4839960999088362,right,up,"(0, 1)","(0, 0)","(0, 0)","(1, 0)","(0, 1)","(0, 0)","(0, 0)","(1, 0)"
interactor,298,9.639837516367946,0.06353904081784996,-0.335,45_bottom_d,True,3.57385200005956,,3.8401728000026196,True,"[-0.2714609591821501, -0.2714609591821501, -0.2714609591821501]",False,True,darker,True,0.5347373000113294,up,right,"(0, 0)","(0, 1)","(1, 0)","(0, 0)","(0, 0)","(1, 1)","(0, 0)","(0, 0)"
interactor,299,9.402211443248204,0.03293168103329261,-0.168,45_top_r,False,,,3.856794200022705,True,"[-0.1350683189667074, -0.1350683189667074, -0.1350683189667074]",True,False,darker,True,0.73416079999879,left,right,"(0, 0)","(1, 1)","(0, 0)","(0, 0)","(0, 0)","(0, 1)","(1, 0)","(0, 0)"
empty,300,9.630322084475736,0.21173143322701846,-0.168,none_u,True,3.573629300110042,left,3.84180490009021,True,"[0.043731433227018446, 0.043731433227018446, 0.043731433227018446]",False,False,lighter,False,0.4667963000247255,down,left,"(1, 0)","(0, 0)","(0, 0)","(0, 1)","(1, 0)","(0, 0)","(0, 0)","(0, 1)"
empty,301,9.879642400749699,0.21020064315332687,0.0,none_u,True,3.5748588000424206,left,3.8588939000619575,True,"[0.21020064315332687, 0.21020064315332687, 0.21020064315332687]",False,False,lighter,,0.3998374999500811,down,left,"(1, 0)","(0, 0)","(0, 0)","(0, 1)","(1, 0)","(0, 0)","(0, 0)","(0, 1)"
interactor,302,9.620647154403406,0.08871500383611151,0.168,45_top_r,False,,,3.857062999974005,True,"[0.2567150038361115, 0.2567150038361115, 0.2567150038361115]",True,False,lighter,True,0.5511781999375671,left,right,"(0, 0)","(1, 1)","(0, 0)","(0, 0)","(0, 0)","(0, 1)","(1, 0)","(0, 0)"
empty,303,9.213722806271216,0.3707800832083493,-0.168,none_r,True,3.5745238999370486,right,3.8406806999119,True,"[0.2027800832083493, 0.2027800832083493, 0.2027800832083493]",False,False,darker,True,0.9341349999886006,left,down,"(0, 0)","(1, 0)","(0, 1)","(0, 0)","(0, 0)","(1, 0)","(0, 1)","(0, 0)"
interactor,304,9.799484627793587,0.5893863911562701,-0.335,45_top_u,True,3.575004699989222,,3.841231200029142,True,"[0.2543863911562701, 0.2543863911562701, 0.2543863911562701]",False,True,darker,True,0.4512099999701604,down,left,"(1, 0)","(0, 0)","(0, 0)","(0, 1)","(0, 0)","(0, 0)","(0, 0)","(1, 1)"
empty,305,9.460786981332582,-0.08062696972371114,0.168,none_l,False,,,3.8579172999598086,True,"[0.08737303027628887, 0.08737303027628887, 0.08737303027628887]",True,True,darker,False,0.6171336999395862,right,left,"(0, 0)","(0, 0)","(0, 0)","(1, 1)","(0, 0)","(0, 0)","(0, 0)","(1, 1)"
interactor,306,9.758965996907346,0.20035243070888487,-0.168,45_top_r,False,,,3.857573200017214,True,"[0.032352430708884855, 0.032352430708884855, 0.032352430708884855]",True,False,x,,,left,right,"(0, 0)","(1, 1)","(0, 0)","(0, 0)","(0, 0)","(0, 1)","(1, 0)","(0, 0)"
empty,307,9.67998221921075,0.5588617792616822,-0.168,none_d,False,,,3.8567992999451235,True,"[0.3908617792616822, 0.3908617792616822, 0.3908617792616822]",True,True,lighter,False,0.3683306999737397,up,down,"(0, 0)","(0, 0)","(1, 1)","(0, 0)","(0, 0)","(0, 0)","(1, 1)","(0, 0)"
interactor,308,8.964379066975475,0.058490233559694196,-0.335,45_bottom_l,False,,,3.859126199968159,True,"[-0.27650976644030584, -0.27650976644030584, -0.27650976644030584]",True,False,darker,True,0.417111000046134,right,left,"(0, 0)","(0, 0)","(0, 0)","(1, 1)","(1, 0)","(0, 0)","(0, 0)","(0, 1)"
interactor,309,9.473243431996444,-0.0173115972993981,0.335,45_top_r,True,3.574643899919465,,3.8417243999429047,True,"[0.31768840270060195, 0.31768840270060195, 0.31768840270060195]",False,True,lighter,True,0.4012081000255421,left,down,"(0, 0)","(1, 0)","(0, 1)","(0, 0)","(0, 0)","(0, 0)","(1, 1)","(0, 0)"
empty,310,9.567625042936474,-0.15463428840321994,0.335,none_l,False,,,3.8578169000102207,True,"[0.18036571159678008, 0.18036571159678008, 0.18036571159678008]",True,True,lighter,True,0.7176981000229716,right,left,"(0, 0)","(0, 0)","(0, 0)","(1, 1)","(0, 0)","(0, 0)","(0, 0)","(1, 1)"
interactor,311,9.665071107258207,-0.03373898943998635,0.168,135_top_u,True,3.574057799996808,,3.8420275000389665,True,"[0.13426101056001366, 0.13426101056001366, 0.13426101056001366]",False,True,lighter,True,0.46659069997258484,down,right,"(1, 0)","(0, 1)","(0, 0)","(0, 0)","(0, 0)","(1, 1)","(0, 0)","(0, 0)"
empty,312,9.280874257527067,0.07647452450336929,0.0,none_d,False,,,3.858469199971296,True,"[0.07647452450336929, 0.07647452450336929, 0.07647452450336929]",True,True,darker,,0.5680092999245971,up,down,"(0, 0)","(0, 0)","(1, 1)","(0, 0)","(0, 0)","(0, 0)","(1, 1)","(0, 0)"
empty,313,9.060605247624759,-0.10857186597576388,-0.335,none_l,True,3.573985799914226,left,3.8419946999056265,True,"[-0.4435718659757639, -0.4435718659757639, -0.4435718659757639]",False,False,darker,True,0.4319085000315681,right,down,"(0, 0)","(0, 0)","(0, 1)","(1, 0)","(0, 0)","(0, 0)","(0, 1)","(1, 0)"
interactor,314,9.552488095023866,-0.12635374951765163,0.0,135_top_l,False,,,3.8579067999962717,True,"[-0.12635374951765163, -0.12635374951765163, -0.12635374951765163]",True,False,darker,,0.43484999996144325,right,left,"(0, 0)","(0, 0)","(0, 0)","(1, 1)","(0, 0)","(0, 0)","(1, 0)","(0, 1)"
interactor,315,9.122205133641069,0.4625503525001421,-0.168,135_top_l,True,3.575036399997771,,3.842224199906923,True,"[0.29455035250014205, 0.29455035250014205, 0.29455035250014205]",False,True,lighter,False,0.4162032000022009,right,down,"(0, 0)","(0, 0)","(0, 1)","(1, 0)","(0, 0)","(0, 0)","(1, 1)","(0, 0)"
empty,316,9.269329590593259,0.13532007134626742,0.168,none_l,True,3.5746072999900207,left,3.840612200088799,True,"[0.30332007134626743, 0.30332007134626743, 0.30332007134626743]",False,False,lighter,True,0.45015689998399466,right,down,"(0, 0)","(0, 0)","(0, 1)","(1, 0)","(0, 0)","(0, 0)","(0, 1)","(1, 0)"
interactor,317,9.306276969369941,0.1765178221760593,0.0,135_bottom_d,False,,,3.85903159994632,True,"[0.1765178221760593, 0.1765178221760593, 0.1765178221760593]",True,False,lighter,,0.5654424000531435,up,down,"(0, 0)","(0, 0)","(1, 1)","(0, 0)","(0, 0)","(0, 0)","(0, 1)","(1, 0)"
empty,318,9.712718693873525,0.2278957696188416,-0.335,none_r,True,3.5756210000254214,left,3.8407398000126705,True,"[-0.10710423038115843, -0.10710423038115843, -0.10710423038115843]",False,False,darker,True,0.4853657999774441,left,up,"(0, 1)","(1, 0)","(0, 0)","(0, 0)","(0, 1)","(1, 0)","(0, 0)","(0, 0)"
empty,319,9.083904259907797,0.06813698022482323,0.168,none_d,False,,,3.857571799890138,True,"[0.23613698022482324, 0.23613698022482324, 0.23613698022482324]",True,True,lighter,True,0.4826016000006348,up,down,"(0, 0)","(0, 0)","(1, 1)","(0, 0)","(0, 0)","(0, 0)","(1, 1)","(0, 0)"
interactor,320,9.49750232427586,-0.23172478646671427,0.335,135_top_l,True,3.576082200044766,,3.8423909000121057,True,"[0.10327521353328575, 0.10327521353328575, 0.10327521353328575]",False,True,lighter,True,0.4496050999732688,right,down,"(0, 0)","(0, 0)","(0, 1)","(1, 0)","(0, 0)","(0, 0)","(1, 1)","(0, 0)"
interactor,321,9.45574290311515,0.0472863821906557,0.168,45_top_u,False,,,3.8574698000447825,True,"[0.2152863821906557, 0.2152863821906557, 0.2152863821906557]",True,False,lighter,True,0.4506971000228077,down,up,"(1, 1)","(0, 0)","(0, 0)","(0, 0)","(0, 1)","(0, 0)","(0, 0)","(1, 0)"
empty,322,9.721237821874041,-0.06180934124854209,0.335,none_d,True,3.573253700044006,right,3.8402899000793695,True,"[0.2731906587514579, 0.2731906587514579, 0.2731906587514579]",False,False,lighter,True,0.40071979991625994,up,left,"(0, 0)","(0, 0)","(1, 0)","(0, 1)","(0, 0)","(0, 0)","(1, 0)","(0, 1)"
empty,323,9.485175063766636,0.5078043034823557,-0.335,none_r,True,3.5729638000484556,left,3.8411266000475734,True,"[0.1728043034823557, 0.1728043034823557, 0.1728043034823557]",False,False,darker,True,0.5658219999168068,left,up,"(0, 1)","(1, 0)","(0, 0)","(0, 0)","(0, 1)","(1, 0)","(0, 0)","(0, 0)"
empty,324,9.208580579588958,-0.11951988768230867,-0.335,none_d,False,,,3.859132800018415,True,"[-0.45451988768230867, -0.45451988768230867, -0.45451988768230867]",True,True,darker,True,0.41576549992896616,up,down,"(0, 0)","(0, 0)","(1, 1)","(0, 0)","(0, 0)","(0, 0)","(1, 1)","(0, 0)"
empty,325,9.392606034696756,0.21367276247794476,-0.168,none_r,False,,,3.858153500012122,True,"[0.045672762477944745, 0.045672762477944745, 0.045672762477944745]",True,True,lighter,False,0.5017816999461502,left,right,"(0, 0)","(1, 1)","(0, 0)","(0, 0)","(0, 0)","(1, 1)","(0, 0)","(0, 0)"
interactor,326,9.76432683244292,0.35384063696311396,0.335,45_top_r,False,,,3.858508599922061,True,"[0.6888406369631139, 0.6888406369631139, 0.6888406369631139]",True,False,lighter,True,0.5844992999918759,left,right,"(0, 0)","(1, 1)","(0, 0)","(0, 0)","(0, 0)","(0, 1)","(1, 0)","(0, 0)"
empty,327,9.537595922005947,0.026797755505223647,0.0,none_u,False,,,3.8579277999233454,True,"[0.026797755505223647, 0.026797755505223647, 0.026797755505223647]",True,True,darker,,0.5499134000856429,down,up,"(1, 1)","(0, 0)","(0, 0)","(0, 0)","(1, 1)","(0, 0)","(0, 0)","(0, 0)"
empty,328,10.067732979068005,0.13092622375828278,-0.168,none_u,True,3.5736732999794185,left,3.8577775999438018,True,"[-0.03707377624171723, -0.03707377624171723, -0.03707377624171723]",False,False,darker,True,0.5000415000831708,down,left,"(1, 0)","(0, 0)","(0, 0)","(0, 1)","(1, 0)","(0, 0)","(0, 0)","(0, 1)"
interactor,329,9.051649354957434,0.21181876951835887,-0.335,45_top_u,True,3.5746206999756396,,3.8417909999843687,True,"[-0.12318123048164115, -0.12318123048164115, -0.12318123048164115]",False,True,darker,True,0.5508985000196844,down,left,"(1, 0)","(0, 0)","(0, 0)","(0, 1)","(0, 0)","(0, 0)","(0, 0)","(1, 1)"
empty,330,9.940803429110801,-0.07001782158786943,0.0,none_l,False,,,3.8568627999629825,True,"[-0.07001782158786943, -0.07001782158786943, -0.07001782158786943]",True,True,darker,,0.4334822000237182,right,left,"(0, 0)","(0, 0)","(0, 0)","(1, 1)","(0, 0)","(0, 0)","(0, 0)","(1, 1)"
empty,331,9.79471283163054,0.31488530719093344,-0.168,none_r,True,3.5759633999550715,right,3.8420851000119,True,"[0.14688530719093343, 0.14688530719093343, 0.14688530719093343]",False,False,darker,True,0.5176531999604777,left,down,"(0, 0)","(1, 0)","(0, 1)","(0, 0)","(0, 0)","(1, 0)","(0, 1)","(0, 0)"
empty,332,9.366858634810512,-0.08252404348466244,0.0,none_r,False,,,3.858535400009714,True,"[-0.08252404348466244, -0.08252404348466244, -0.08252404348466244]",True,True,darker,,0.6343319000443444,left,right,"(0, 0)","(1, 1)","(0, 0)","(0, 0)","(0, 0)","(1, 1)","(0, 0)","(0, 0)"
interactor,333,9.743493188044695,0.1774284445494263,0.335,45_top_r,True,3.574975199997425,,3.8412952999351546,True,"[0.5124284445494263, 0.5124284445494263, 0.5124284445494263]",False,True,lighter,True,0.38336790003813803,left,down,"(0, 0)","(1, 0)","(0, 1)","(0, 0)","(0, 0)","(0, 0)","(1, 1)","(0, 0)"
empty,334,9.64138305277654,0.39624218292686,0.0,none_d,True,3.574932999908924,right,3.8399370999541134,True,"[0.39624218292686, 0.39624218292686, 0.39624218292686]",False,False,lighter,,0.4857930999714881,up,left,"(0, 0)","(0, 0)","(1, 0)","(0, 1)","(0, 0)","(0, 0)","(1, 0)","(0, 1)"
interactor,335,9.457457220180213,0.10305041258490152,0.335,135_bottom_r,False,,,3.857939300010912,True,"[0.4380504125849015, 0.4380504125849015, 0.4380504125849015]",True,False,lighter,True,0.41662409994751215,left,right,"(0, 0)","(1, 1)","(0, 0)","(0, 0)","(1, 0)","(0, 1)","(0, 0)","(0, 0)"
interactor,336,9.799405578510973,0.29070169289456593,0.168,45_top_u,True,3.5740723999915645,,3.841257099993527,True,"[0.45870169289456597, 0.45870169289456597, 0.45870169289456597]",False,True,darker,False,0.6338429000461474,down,left,"(1, 0)","(0, 0)","(0, 0)","(0, 1)","(0, 0)","(0, 0)","(0, 0)","(1, 1)"
interactor,337,9.013237820660851,-0.1262949459182988,0.335,45_bottom_l,True,3.573970300029032,,3.841955100069754,True,"[0.20870505408170123, 0.20870505408170123, 0.20870505408170123]",False,True,lighter,True,0.39991519995965064,right,up,"(0, 1)","(0, 0)","(0, 0)","(1, 0)","(1, 1)","(0, 0)","(0, 0)","(0, 0)"
empty,338,9.300292625627945,0.28302714091144665,0.168,none_d,True,3.575048099970445,right,3.840933099971153,True,"[0.4510271409114467, 0.4510271409114467, 0.4510271409114467]",False,False,lighter,True,0.48505360004492104,up,left,"(0, 0)","(0, 0)","(1, 0)","(0, 1)","(0, 0)","(0, 0)","(1, 0)","(0, 1)"
