trial,ball_speed,interactor,bounce,bounce_moment,random_bounce_direction,target_onset,speed_change,ball_change,abs_congruent,sim_congruent,response,accuracy,rt,start_pos,end_pos,abs_rfup,abs_rfright,abs_rfdown,abs_rfleft,sim_rfup,sim_rfright,sim_rfdown,sim_rfleft
1,4.0,135,True,4.876352291787043,,,,False,False,True,,,,up,right,"(0, 0)","(0, 1)","(1, 0)","(0, 0)","(0, 0)","(1, 1)","(0, 0)","(0, 0)"
2,4.5,135,True,4.865836041746661,,5.051978791831061,slower,True,False,True,up,True,0.847476250026375,right,up,"(0, 1)","(0, 0)","(0, 0)","(1, 0)","(1, 1)","(0, 0)","(0, 0)","(0, 0)"
3,4.5,none,False,,,,,False,True,True,,,,left,right,"(0, 0)","(1, 1)","(0, 0)","(0, 0)","(0, 0)","(1, 1)","(0, 0)","(0, 0)"
4,4.0,45,True,4.865445625036955,,,,False,False,True,up,False,0.9344305000267923,left,up,"(0, 1)","(1, 0)","(0, 0)","(0, 0)","(1, 1)","(0, 0)","(0, 0)","(0, 0)"
5,4.0,45,True,4.867033291608095,,,,False,False,True,,,,down,right,"(1, 0)","(0, 1)","(0, 0)","(0, 0)","(0, 0)","(1, 1)","(0, 0)","(0, 0)"
6,3.5,none,True,4.985968541586772,right,,,False,False,False,,,,up,left,"(0, 0)","(0, 0)","(1, 0)","(0, 1)","(0, 0)","(0, 0)","(1, 0)","(0, 1)"
7,3.5,none,False,,,5.2646532081998885,slower,True,True,True,up,True,1.0798125832807273,down,up,"(1, 1)","(0, 0)","(0, 0)","(0, 0)","(1, 1)","(0, 0)","(0, 0)","(0, 0)"
8,4.5,45,False,,,5.2510251251515,slower,True,True,False,left,True,1.3606035830453038,right,left,"(0, 0)","(0, 0)","(0, 0)","(1, 1)","(0, 0)","(0, 0)","(1, 0)","(0, 1)"
9,4.5,135,True,4.865344833116978,,5.052946624811739,slower,True,False,True,up,True,0.865943375043571,right,up,"(0, 1)","(0, 0)","(0, 0)","(1, 0)","(1, 1)","(0, 0)","(0, 0)","(0, 0)"
10,3.5,none,True,4.9576939581893384,right,,,False,False,False,left,False,1.3740255001466721,up,left,"(0, 0)","(0, 0)","(1, 0)","(0, 1)","(0, 0)","(0, 0)","(1, 0)","(0, 1)"
11,3.5,45,False,,,,,False,True,False,,,,left,right,"(0, 0)","(1, 1)","(0, 0)","(0, 0)","(1, 0)","(0, 1)","(0, 0)","(0, 0)"
12,4.5,none,True,4.971875708317384,left,5.15805787499994,slower,True,False,False,right,True,0.9474043331574649,up,right,"(0, 0)","(0, 1)","(1, 0)","(0, 0)","(0, 0)","(0, 1)","(1, 0)","(0, 0)"
13,4.0,45,False,,,,,False,True,False,up,False,1.1740753748454154,down,up,"(1, 1)","(0, 0)","(0, 0)","(0, 0)","(0, 1)","(1, 0)","(0, 0)","(0, 0)"
14,4.0,none,False,,,5.260405250126496,faster,True,True,True,,False,,down,up,"(1, 1)","(0, 0)","(0, 0)","(0, 0)","(1, 1)","(0, 0)","(0, 0)","(0, 0)"
15,4.5,none,False,,,5.251666333526373,faster,True,True,True,up,True,0.9735897500067949,down,up,"(1, 1)","(0, 0)","(0, 0)","(0, 0)","(1, 1)","(0, 0)","(0, 0)","(0, 0)"
16,4.5,none,False,,,,,False,True,True,,,,left,right,"(0, 0)","(1, 1)","(0, 0)","(0, 0)","(0, 0)","(1, 1)","(0, 0)","(0, 0)"
17,4.0,135,True,4.864793416811153,,5.077590750064701,faster,True,False,True,down,True,0.8545915416907519,left,down,"(0, 0)","(1, 0)","(0, 1)","(0, 0)","(0, 0)","(0, 0)","(1, 1)","(0, 0)"
18,4.0,135,False,,,5.23776595829986,faster,True,True,False,,False,,up,down,"(0, 0)","(0, 0)","(1, 1)","(0, 0)","(0, 0)","(1, 0)","(0, 1)","(0, 0)"
19,3.5,45,True,4.865542458370328,,,,False,False,True,,,,down,right,"(1, 0)","(0, 1)","(0, 0)","(0, 0)","(0, 0)","(1, 1)","(0, 0)","(0, 0)"
20,3.5,45,False,,,,,False,True,False,,,,up,down,"(0, 0)","(0, 0)","(1, 1)","(0, 0)","(0, 0)","(0, 0)","(0, 1)","(1, 0)"
21,4.5,45,False,,,,,False,True,False,,,,left,right,"(0, 0)","(1, 1)","(0, 0)","(0, 0)","(1, 0)","(0, 1)","(0, 0)","(0, 0)"
22,4.0,none,False,,,,,False,True,True,,,,right,left,"(0, 0)","(0, 0)","(0, 0)","(1, 1)","(0, 0)","(0, 0)","(0, 0)","(1, 1)"
23,3.5,45,True,4.865163041744381,,5.1229100418277085,slower,True,False,True,up,True,0.9970914998557419,left,up,"(0, 1)","(1, 0)","(0, 0)","(0, 0)","(1, 1)","(0, 0)","(0, 0)","(0, 0)"
24,4.0,none,True,4.958694374887273,left,,,False,False,False,left,False,1.4267212082631886,down,left,"(1, 0)","(0, 0)","(0, 0)","(0, 1)","(1, 0)","(0, 0)","(0, 0)","(0, 1)"
25,3.5,45,False,,,5.251439416548237,slower,True,True,False,down,True,0.9874116666615009,up,down,"(0, 0)","(0, 0)","(1, 1)","(0, 0)","(0, 0)","(0, 0)","(0, 1)","(1, 0)"
26,4.5,135,True,4.852320875041187,,5.038522916613147,faster,True,False,True,up,True,0.8133023334667087,right,up,"(0, 1)","(0, 0)","(0, 0)","(1, 0)","(1, 1)","(0, 0)","(0, 0)","(0, 0)"
27,4.0,135,False,,,,,False,True,False,,,,right,left,"(0, 0)","(0, 0)","(0, 0)","(1, 1)","(1, 0)","(0, 0)","(0, 0)","(0, 1)"
28,3.5,135,True,4.878639250062406,,5.120103833498433,faster,True,False,True,right,True,1.0399833333212882,up,right,"(0, 0)","(0, 1)","(1, 0)","(0, 0)","(0, 0)","(1, 1)","(0, 0)","(0, 0)"
29,4.5,135,False,,,5.238763500005007,slower,True,True,False,up,True,0.9070816666353494,down,up,"(1, 1)","(0, 0)","(0, 0)","(0, 0)","(0, 1)","(0, 0)","(0, 0)","(1, 0)"
30,3.5,135,True,4.85139354178682,,5.09208745835349,faster,True,False,True,up,True,0.7873273333534598,right,up,"(0, 1)","(0, 0)","(0, 0)","(1, 0)","(1, 1)","(0, 0)","(0, 0)","(0, 0)"
