trial_type,trial,ball_speed,ball_start_color,ball_color_change,interactor,bounce,bounce_moment,random_bounce_direction,target_onset,ball_change,target_color,abs_congruent,sim_congruent,response,accuracy,rt,start_pos,end_pos,abs_rfup,abs_rfright,abs_rfdown,abs_rfleft,sim_rfup,sim_rfright,sim_rfdown,sim_rfleft
empty,1,9.869009111676645,-0.10456492895893119,-0.335,none_d,False,,,3.9159070000168867,True,"[-0.4395649289589312, -0.4395649289589312, -0.4395649289589312]",True,True,,False,,up,down,"(0, 0)","(0, 0)","(1, 1)","(0, 0)","(0, 0)","(0, 0)","(1, 1)","(0, 0)"
interactor,2,9.777964605525437,0.20143241904212567,-0.335,135_top_u,False,,,3.8563990000402555,True,"[-0.13356758095787435, -0.13356758095787435, -0.13356758095787435]",True,False,,False,,down,up,"(1, 1)","(0, 0)","(0, 0)","(0, 0)","(0, 1)","(1, 0)","(0, 0)","(0, 0)"
interactor,3,8.986666892650524,0.3267879337061839,0.168,135_bottom_r,True,3.575594399997499,,3.842992799996864,True,"[0.4947879337061839, 0.4947879337061839, 0.4947879337061839]",False,True,,False,,left,up,"(0, 1)","(1, 0)","(0, 0)","(0, 0)","(1, 1)","(0, 0)","(0, 0)","(0, 0)"
empty,4,9.791998339295516,0.014877252552014164,0.0,none_l,False,,,3.8571894000051543,True,"[0.014877252552014164, 0.014877252552014164, 0.014877252552014164]",True,True,,False,,right,left,"(0, 0)","(0, 0)","(0, 0)","(1, 1)","(0, 0)","(0, 0)","(0, 0)","(1, 1)"
interactor,5,9.270336042970003,0.10229444225372347,-0.335,135_top_l,False,,,3.858171899977606,True,"[-0.23270555774627655, -0.23270555774627655, -0.23270555774627655]",True,False,lighter,False,1.3998646999825723,right,left,"(0, 0)","(0, 0)","(0, 0)","(1, 1)","(0, 0)","(0, 0)","(1, 0)","(0, 1)"
empty,6,9.275359965912921,0.038077022570477945,0.335,none_l,True,3.5735963999759406,right,3.839547000010498,True,"[0.373077022570478, 0.373077022570478, 0.373077022570478]",False,False,,False,,right,up,"(0, 1)","(0, 0)","(0, 0)","(1, 0)","(0, 1)","(0, 0)","(0, 0)","(1, 0)"
interactor,7,9.367782457730286,0.19782273125762712,-0.335,45_top_u,True,3.5743512000190094,,3.841960099991411,True,"[-0.1371772687423729, -0.1371772687423729, -0.1371772687423729]",False,True,,False,,down,left,"(1, 0)","(0, 0)","(0, 0)","(0, 1)","(0, 0)","(0, 0)","(0, 0)","(1, 1)"
empty,8,9.549625868476056,0.0760995364230252,-0.168,none_l,False,,,3.8582464000210166,True,"[-0.09190046357697482, -0.09190046357697482, -0.09190046357697482]",True,True,,False,,right,left,"(0, 0)","(0, 0)","(0, 0)","(1, 1)","(0, 0)","(0, 0)","(0, 0)","(1, 1)"
interactor,9,8.97458800384197,-0.05471160405332012,0.335,135_top_l,False,,,3.859368200006429,True,"[0.28028839594667987, 0.28028839594667987, 0.28028839594667987]",True,False,darker,False,1.016830300039146,right,left,"(0, 0)","(0, 0)","(0, 0)","(1, 1)","(0, 0)","(0, 0)","(1, 0)","(0, 1)"
empty,10,9.779861745269677,-0.07374960842707648,0.335,none_d,True,3.5747849000035785,right,3.8420700000133365,True,"[0.2612503915729235, 0.2612503915729235, 0.2612503915729235]",False,False,,False,,up,left,"(0, 0)","(0, 0)","(1, 0)","(0, 1)","(0, 0)","(0, 0)","(1, 0)","(0, 1)"
empty,11,9.158809640622511,0.27393157182897765,-0.335,none_d,True,3.5752916000201367,right,3.84321760002058,True,"[-0.06106842817102237, -0.06106842817102237, -0.06106842817102237]",False,False,darker,True,1.3666293999995105,up,left,"(0, 0)","(0, 0)","(1, 0)","(0, 1)","(0, 0)","(0, 0)","(1, 0)","(0, 1)"
empty,12,9.303506122514456,0.0030020067109006177,-0.335,none_r,True,3.5745219999807887,right,3.840684599999804,True,"[-0.3319979932890994, -0.3319979932890994, -0.3319979932890994]",False,False,,False,,left,down,"(0, 0)","(1, 0)","(0, 1)","(0, 0)","(0, 0)","(1, 0)","(0, 1)","(0, 0)"
interactor,13,9.730881185116887,0.19493029575448625,-0.335,45_top_u,True,3.5758080999949016,,3.842029299994465,True,"[-0.14006970424551377, -0.14006970424551377, -0.14006970424551377]",False,True,darker,True,1.30005020002136,down,left,"(1, 0)","(0, 0)","(0, 0)","(0, 1)","(0, 0)","(0, 0)","(0, 0)","(1, 1)"
interactor,14,9.345146393752012,0.30174648135154686,-0.335,45_bottom_d,False,,,3.858664500003215,True,"[-0.03325351864845316, -0.03325351864845316, -0.03325351864845316]",True,False,,False,,up,down,"(0, 0)","(0, 0)","(1, 1)","(0, 0)","(0, 0)","(1, 0)","(0, 1)","(0, 0)"
interactor,15,9.004439544393836,0.137923355435668,0.0,135_top_l,True,3.5754075999720953,,3.8425923999748193,True,"[0.137923355435668, 0.137923355435668, 0.137923355435668]",False,True,,False,,right,down,"(0, 0)","(0, 0)","(0, 1)","(1, 0)","(0, 0)","(0, 0)","(1, 1)","(0, 0)"
empty,16,9.537350208311688,0.09615492636989206,0.168,none_d,True,3.576257400040049,left,3.8415775999892503,True,"[0.2641549263698921, 0.2641549263698921, 0.2641549263698921]",False,False,,False,,up,right,"(0, 0)","(0, 1)","(1, 0)","(0, 0)","(0, 0)","(0, 1)","(1, 0)","(0, 0)"
interactor,17,9.335747469315514,0.37199261022824204,-0.335,45_bottom_l,True,3.5745874000131153,,3.8409959000418894,True,"[0.03699261022824202, 0.03699261022824202, 0.03699261022824202]",False,True,darker,True,1.1350756000028923,right,up,"(0, 1)","(0, 0)","(0, 0)","(1, 0)","(1, 1)","(0, 0)","(0, 0)","(0, 0)"
interactor,18,9.879312013242235,-0.0500642976883251,0.0,45_top_u,False,,,3.8580263000330888,True,"[-0.0500642976883251, -0.0500642976883251, -0.0500642976883251]",True,False,,False,,down,up,"(1, 1)","(0, 0)","(0, 0)","(0, 0)","(0, 1)","(0, 0)","(0, 0)","(1, 0)"
interactor,19,9.610281092339838,0.31075946345694394,0.335,135_bottom_d,True,3.5728853000327945,,3.841441600001417,True,"[0.6457594634569439, 0.6457594634569439, 0.6457594634569439]",False,True,,False,,up,left,"(0, 0)","(0, 0)","(1, 0)","(0, 1)","(0, 0)","(0, 0)","(0, 0)","(1, 1)"
empty,20,9.260115595827346,0.16393463104353379,0.168,none_u,True,3.5755796000012197,left,3.8427690000389703,True,"[0.3319346310435338, 0.3319346310435338, 0.3319346310435338]",False,False,lighter,True,0.85071709996555,down,left,"(1, 0)","(0, 0)","(0, 0)","(0, 1)","(1, 0)","(0, 0)","(0, 0)","(0, 1)"
interactor,21,9.165447825715532,0.33944948582845846,-0.335,45_bottom_l,False,,,3.85837430000538,True,"[0.004449485828458444, 0.004449485828458444, 0.004449485828458444]",True,False,darker,True,0.8174074999988079,right,left,"(0, 0)","(0, 0)","(0, 0)","(1, 1)","(1, 0)","(0, 0)","(0, 0)","(0, 1)"
interactor,22,9.054488187842725,-0.09428020510397606,-0.168,135_bottom_r,True,3.5748645000276156,,3.8422728999867104,True,"[-0.2622802051039761, -0.2622802051039761, -0.2622802051039761]",False,True,darker,True,1.1675274000153877,left,up,"(0, 1)","(1, 0)","(0, 0)","(0, 0)","(1, 1)","(0, 0)","(0, 0)","(0, 0)"
interactor,23,9.851059754074127,0.16440196766643966,-0.168,135_top_u,True,3.573753400007263,,3.857334100001026,True,"[-0.003598032333560347, -0.003598032333560347, -0.003598032333560347]",False,True,,False,,down,right,"(1, 0)","(0, 1)","(0, 0)","(0, 0)","(0, 0)","(1, 1)","(0, 0)","(0, 0)"
interactor,24,9.418587368851135,0.2663432525822424,-0.168,135_top_l,True,3.5742006999789737,,3.840595999965444,True,"[0.09834325258224239, 0.09834325258224239, 0.09834325258224239]",False,True,,False,,right,down,"(0, 0)","(0, 0)","(0, 1)","(1, 0)","(0, 0)","(0, 0)","(1, 1)","(0, 0)"
interactor,25,9.308083303915875,-0.12378865867190988,-0.168,135_top_l,False,,,3.8592571999761276,True,"[-0.2917886586719099, -0.2917886586719099, -0.2917886586719099]",True,False,darker,True,1.0002034999779426,right,left,"(0, 0)","(0, 0)","(0, 0)","(1, 1)","(0, 0)","(0, 0)","(1, 0)","(0, 1)"
empty,26,9.310155665007555,0.11066009072300928,0.168,none_r,True,3.5729353000060655,right,3.8399659999995492,True,"[0.2786600907230093, 0.2786600907230093, 0.2786600907230093]",False,False,,False,,left,down,"(0, 0)","(1, 0)","(0, 1)","(0, 0)","(0, 0)","(1, 0)","(0, 1)","(0, 0)"
interactor,27,9.3323876463022,0.3262986514448346,0.0,135_top_u,False,,,3.8572940999874845,True,"[0.3262986514448346, 0.3262986514448346, 0.3262986514448346]",True,False,,False,,down,up,"(1, 1)","(0, 0)","(0, 0)","(0, 0)","(0, 1)","(1, 0)","(0, 0)","(0, 0)"
interactor,28,9.408453003933822,0.025916961210458833,0.335,135_top_u,True,3.5723614000016823,,3.8400411999900825,True,"[0.36091696121045885, 0.36091696121045885, 0.36091696121045885]",False,True,,False,,down,right,"(1, 0)","(0, 1)","(0, 0)","(0, 0)","(0, 0)","(1, 1)","(0, 0)","(0, 0)"
empty,29,9.175879012634974,0.00729820499850195,0.168,none_d,True,3.575493499985896,right,3.841339600039646,True,"[0.17529820499850196, 0.17529820499850196, 0.17529820499850196]",False,False,darker,False,0.9673769999644719,up,left,"(0, 0)","(0, 0)","(1, 0)","(0, 1)","(0, 0)","(0, 0)","(1, 0)","(0, 1)"
empty,30,9.690828533764554,0.17643093345100946,0.168,none_r,False,,,3.8566809000330977,True,"[0.3444309334510095, 0.3444309334510095, 0.3444309334510095]",True,True,lighter,True,0.8673374999780208,left,right,"(0, 0)","(1, 1)","(0, 0)","(0, 0)","(0, 0)","(1, 1)","(0, 0)","(0, 0)"
interactor,31,9.745378830541199,0.07639152097373919,-0.168,45_top_u,False,,,3.859494599979371,True,"[-0.09160847902626082, -0.09160847902626082, -0.09160847902626082]",True,False,darker,True,0.6503371000289917,down,up,"(1, 1)","(0, 0)","(0, 0)","(0, 0)","(0, 1)","(0, 0)","(0, 0)","(1, 0)"
interactor,32,9.239345553819806,0.0032002145724927544,-0.335,135_bottom_d,True,3.573579100018833,,3.8399487000424415,True,"[-0.33179978542750727, -0.33179978542750727, -0.33179978542750727]",False,True,darker,True,0.7669296999811195,up,left,"(0, 0)","(0, 0)","(1, 0)","(0, 1)","(0, 0)","(0, 0)","(0, 0)","(1, 1)"
empty,33,9.905502924382654,0.1521620483786433,-0.168,none_l,True,3.5739698000252247,left,3.8571068000164814,True,"[-0.015837951621356705, -0.015837951621356705, -0.015837951621356705]",False,False,,False,,right,down,"(0, 0)","(0, 0)","(0, 1)","(1, 0)","(0, 0)","(0, 0)","(0, 1)","(1, 0)"
empty,34,9.91823868947483,-0.09254816564169127,0.0,none_r,False,,,3.8574801000067964,True,"[-0.09254816564169127, -0.09254816564169127, -0.09254816564169127]",True,True,,False,,left,right,"(0, 0)","(1, 1)","(0, 0)","(0, 0)","(0, 0)","(1, 1)","(0, 0)","(0, 0)"
interactor,35,9.73457090896969,0.045095926334100894,0.335,45_top_u,True,3.5754864999908023,,3.8419290999881923,True,"[0.38009592633410094, 0.38009592633410094, 0.38009592633410094]",False,True,,False,,down,left,"(1, 0)","(0, 0)","(0, 0)","(0, 1)","(0, 0)","(0, 0)","(0, 0)","(1, 1)"
interactor,36,9.361503791395622,0.05246393050464522,0.335,45_top_u,False,,,3.857054399966728,True,"[0.3874639305046452, 0.3874639305046452, 0.3874639305046452]",True,False,,False,,down,up,"(1, 1)","(0, 0)","(0, 0)","(0, 0)","(0, 1)","(0, 0)","(0, 0)","(1, 0)"
interactor,37,9.42662890609408,0.44472878644222147,0.335,135_bottom_r,False,,,3.8585493999999017,True,"[0.7797287864422215, 0.7797287864422215, 0.7797287864422215]",True,False,lighter,True,1.2334067999618128,left,right,"(0, 0)","(1, 1)","(0, 0)","(0, 0)","(1, 0)","(0, 1)","(0, 0)","(0, 0)"
empty,38,9.704452941460003,0.42204711272638007,-0.168,none_u,False,,,3.8569877999834716,True,"[0.25404711272638003, 0.25404711272638003, 0.25404711272638003]",True,True,,False,,down,up,"(1, 1)","(0, 0)","(0, 0)","(0, 0)","(1, 1)","(0, 0)","(0, 0)","(0, 0)"
empty,39,9.398065090098981,0.21248828062394737,0.0,none_u,False,,,3.859569800028112,True,"[0.21248828062394737, 0.21248828062394737, 0.21248828062394737]",True,True,,False,,down,up,"(1, 1)","(0, 0)","(0, 0)","(0, 0)","(1, 1)","(0, 0)","(0, 0)","(0, 0)"
empty,40,8.848237487567514,0.2005210888386536,0.168,none_l,True,3.574104300001636,right,3.840286599996034,True,"[0.36852108883865364, 0.36852108883865364, 0.36852108883865364]",False,False,lighter,True,0.9504923000349663,right,up,"(0, 1)","(0, 0)","(0, 0)","(1, 0)","(0, 1)","(0, 0)","(0, 0)","(1, 0)"
empty,41,9.657606202595062,0.045181210691799034,0.335,none_d,True,3.5740702000330202,right,3.8412367000128143,True,"[0.38018121069179905, 0.38018121069179905, 0.38018121069179905]",False,False,darker,False,0.8338986000162549,up,left,"(0, 0)","(0, 0)","(1, 0)","(0, 1)","(0, 0)","(0, 0)","(1, 0)","(0, 1)"
empty,42,9.707791925148332,0.11916317291847017,0.168,none_u,True,3.5742036000010557,right,3.8412060999544337,True,"[0.28716317291847016, 0.28716317291847016, 0.28716317291847016]",False,False,lighter,True,0.9167775000096299,down,right,"(1, 0)","(0, 1)","(0, 0)","(0, 0)","(1, 0)","(0, 1)","(0, 0)","(0, 0)"
interactor,43,9.041903337924458,0.42247173503262647,-0.168,135_top_u,False,,,3.8592176000238396,True,"[0.25447173503262643, 0.25447173503262643, 0.25447173503262643]",True,False,,False,,down,up,"(1, 1)","(0, 0)","(0, 0)","(0, 0)","(0, 1)","(1, 0)","(0, 0)","(0, 0)"
interactor,44,9.485813463333189,0.10100105725739068,0.168,45_top_u,True,3.572647400025744,,3.8400867999880575,True,"[0.2690010572573907, 0.2690010572573907, 0.2690010572573907]",False,True,,False,,down,left,"(1, 0)","(0, 0)","(0, 0)","(0, 1)","(0, 0)","(0, 0)","(0, 0)","(1, 1)"
interactor,45,9.590905780670395,0.42572118182659524,0.335,45_bottom_l,False,,,3.8591241000103764,True,"[0.7607211818265953, 0.7607211818265953, 0.7607211818265953]",True,False,lighter,True,1.2504235999658704,right,left,"(0, 0)","(0, 0)","(0, 0)","(1, 1)","(1, 0)","(0, 0)","(0, 0)","(0, 1)"
interactor,46,9.308213735325335,0.008845178708093204,0.0,45_top_u,True,3.5742391999810934,,3.8407693000044674,True,"[0.008845178708093204, 0.008845178708093204, 0.008845178708093204]",False,True,darker,,0.9678278000210412,down,left,"(1, 0)","(0, 0)","(0, 0)","(0, 1)","(0, 0)","(0, 0)","(0, 0)","(1, 1)"
interactor,47,9.43017299416295,0.1652308644565608,0.335,135_bottom_d,False,,,3.8586010000435635,True,"[0.5002308644565608, 0.5002308644565608, 0.5002308644565608]",True,False,,False,,up,down,"(0, 0)","(0, 0)","(1, 1)","(0, 0)","(0, 0)","(0, 0)","(0, 1)","(1, 0)"
interactor,48,9.779153765837263,-0.110717078967534,0.168,135_bottom_d,True,3.573638299945742,,3.8410523999482393,True,"[0.057282921032466017, 0.057282921032466017, 0.057282921032466017]",False,True,darker,False,1.0674011000082828,up,left,"(0, 0)","(0, 0)","(1, 0)","(0, 1)","(0, 0)","(0, 0)","(0, 0)","(1, 1)"
interactor,49,8.967103298259051,0.17093475456002666,0.168,45_top_r,True,3.57463419996202,,3.8428352999617346,True,"[0.33893475456002664, 0.33893475456002664, 0.33893475456002664]",False,True,lighter,True,0.7332511999993585,left,down,"(0, 0)","(1, 0)","(0, 1)","(0, 0)","(0, 0)","(0, 0)","(1, 1)","(0, 0)"
interactor,50,9.357742656284534,0.311399439683291,-0.168,135_top_l,False,,,3.8579078000038862,True,"[0.14339943968329097, 0.14339943968329097, 0.14339943968329097]",True,False,darker,True,0.76734880002914,right,left,"(0, 0)","(0, 0)","(0, 0)","(1, 1)","(0, 0)","(0, 0)","(1, 0)","(0, 1)"
interactor,51,9.577382683605633,0.271662112555142,-0.335,135_bottom_r,True,3.5737964999862015,,3.840295000001788,True,"[-0.06333788744485802, -0.06333788744485802, -0.06333788744485802]",False,True,darker,True,1.0679531000205316,left,up,"(0, 1)","(1, 0)","(0, 0)","(0, 0)","(1, 1)","(0, 0)","(0, 0)","(0, 0)"
interactor,52,9.564279171823705,0.06324832240509662,-0.335,45_bottom_d,True,3.57431999995606,,3.841810899961274,True,"[-0.2717516775949034, -0.2717516775949034, -0.2717516775949034]",False,True,darker,True,0.7833175000268966,up,right,"(0, 0)","(0, 1)","(1, 0)","(0, 0)","(0, 0)","(1, 1)","(0, 0)","(0, 0)"
empty,53,9.756779834209853,0.38549413588323145,0.335,none_l,False,,,3.8583482000394724,True,"[0.7204941358832315, 0.7204941358832315, 0.7204941358832315]",True,True,,False,,right,left,"(0, 0)","(0, 0)","(0, 0)","(1, 1)","(0, 0)","(0, 0)","(0, 0)","(1, 1)"
interactor,54,9.421766780125555,-0.048744915111924636,0.335,45_bottom_d,True,3.5748368999920785,,3.8411571999895386,True,"[0.2862550848880754, 0.2862550848880754, 0.2862550848880754]",False,True,,False,,up,right,"(0, 0)","(0, 1)","(1, 0)","(0, 0)","(0, 0)","(1, 1)","(0, 0)","(0, 0)"
empty,55,9.295885201975455,0.4482751379871803,-0.168,none_u,True,3.5751763000153005,right,3.8401344000012614,True,"[0.2802751379871803, 0.2802751379871803, 0.2802751379871803]",False,False,,False,,down,right,"(1, 0)","(0, 1)","(0, 0)","(0, 0)","(1, 0)","(0, 1)","(0, 0)","(0, 0)"
interactor,56,9.092526313971884,0.16615244096664045,-0.335,45_top_r,False,,,3.8579634000197984,True,"[-0.16884755903335957, -0.16884755903335957, -0.16884755903335957]",True,False,darker,True,0.8837297999998555,left,right,"(0, 0)","(1, 1)","(0, 0)","(0, 0)","(0, 0)","(0, 1)","(1, 0)","(0, 0)"
interactor,57,9.425573859817922,0.23948335729081308,-0.335,45_bottom_l,False,,,3.85822780005401,True,"[-0.09551664270918694, -0.09551664270918694, -0.09551664270918694]",True,False,darker,True,1.4508236999972723,right,left,"(0, 0)","(0, 0)","(0, 0)","(1, 1)","(1, 0)","(0, 0)","(0, 0)","(0, 1)"
empty,58,9.474041523651861,-0.12459038064946695,-0.168,none_u,True,3.574817400018219,right,3.841201299976092,True,"[-0.29259038064946696, -0.29259038064946696, -0.29259038064946696]",False,False,darker,True,1.2841088000568561,down,right,"(1, 0)","(0, 1)","(0, 0)","(0, 0)","(1, 0)","(0, 1)","(0, 0)","(0, 0)"
empty,59,9.520744669847131,0.15053486174329947,-0.168,none_u,True,3.5757292000344023,right,3.8410757000092417,True,"[-0.01746513825670054, -0.01746513825670054, -0.01746513825670054]",False,False,,False,,down,right,"(1, 0)","(0, 1)","(0, 0)","(0, 0)","(1, 0)","(0, 1)","(0, 0)","(0, 0)"
interactor,60,9.556473919780817,0.026483898155524502,0.0,135_bottom_d,True,3.5742725000018254,,3.8406642000190914,True,"[0.026483898155524502, 0.026483898155524502, 0.026483898155524502]",False,True,darker,,1.2669750999775715,up,left,"(0, 0)","(0, 0)","(1, 0)","(0, 1)","(0, 0)","(0, 0)","(0, 0)","(1, 1)"
empty,61,9.526235425868197,0.2524787688087163,0.335,none_r,False,,,3.859384199953638,True,"[0.5874787688087163, 0.5874787688087163, 0.5874787688087163]",True,True,lighter,True,1.0510863000527024,left,right,"(0, 0)","(1, 1)","(0, 0)","(0, 0)","(0, 0)","(1, 1)","(0, 0)","(0, 0)"
interactor,62,9.82132351906443,0.33171900763101086,-0.335,45_bottom_l,True,3.574470499996096,,3.858792799990624,True,"[-0.003280992368989155, -0.003280992368989155, -0.003280992368989155]",False,True,darker,True,0.9828305999981239,right,up,"(0, 1)","(0, 0)","(0, 0)","(1, 0)","(1, 1)","(0, 0)","(0, 0)","(0, 0)"
interactor,63,9.882596445792467,0.07618992324740358,0.335,135_bottom_r,True,3.574507999990601,,3.8589920999947935,True,"[0.4111899232474036, 0.4111899232474036, 0.4111899232474036]",False,True,,False,,left,up,"(0, 1)","(1, 0)","(0, 0)","(0, 0)","(1, 1)","(0, 0)","(0, 0)","(0, 0)"
interactor,64,9.337298179122325,0.38539789084812714,-0.168,45_bottom_l,True,3.57519180001691,,3.840478300000541,True,"[0.21739789084812713, 0.21739789084812713, 0.21739789084812713]",False,True,,False,,right,up,"(0, 1)","(0, 0)","(0, 0)","(1, 0)","(1, 1)","(0, 0)","(0, 0)","(0, 0)"
interactor,65,9.509444839864893,0.12213286901723419,-0.168,135_bottom_r,True,3.5755927999853157,,3.8419075999991037,True,"[-0.04586713098276582, -0.04586713098276582, -0.04586713098276582]",False,True,darker,True,0.9335840999847278,left,up,"(0, 1)","(1, 0)","(0, 0)","(0, 0)","(1, 1)","(0, 0)","(0, 0)","(0, 0)"
empty,66,9.392729606923599,0.18578203103656588,0.335,none_r,False,,,3.8589575000223704,True,"[0.5207820310365658, 0.5207820310365658, 0.5207820310365658]",True,True,lighter,True,0.8819183000014164,left,right,"(0, 0)","(1, 1)","(0, 0)","(0, 0)","(0, 0)","(1, 1)","(0, 0)","(0, 0)"
empty,67,9.040924769209866,0.08450378654925508,0.0,none_l,False,,,3.859186600020621,True,"[0.08450378654925508, 0.08450378654925508, 0.08450378654925508]",True,True,darker,,0.9658898999914527,right,left,"(0, 0)","(0, 0)","(0, 0)","(1, 1)","(0, 0)","(0, 0)","(0, 0)","(1, 1)"
interactor,68,10.116527146443381,-0.03743548438923036,0.335,135_bottom_d,False,,,3.8577210000366904,True,"[0.2975645156107697, 0.2975645156107697, 0.2975645156107697]",True,False,lighter,True,0.6514839999726973,up,down,"(0, 0)","(0, 0)","(1, 1)","(0, 0)","(0, 0)","(0, 0)","(0, 1)","(1, 0)"
empty,69,10.076468825167904,0.44829105785811263,-0.335,none_r,True,3.5745725000160746,right,3.857147399976384,True,"[0.11329105785811261, 0.11329105785811261, 0.11329105785811261]",False,False,lighter,False,1.282992499996908,left,down,"(0, 0)","(1, 0)","(0, 1)","(0, 0)","(0, 0)","(1, 0)","(0, 1)","(0, 0)"
interactor,70,9.50092285805261,0.28990067984888424,0.0,135_bottom_d,False,,,3.8582012999686413,True,"[0.28990067984888424, 0.28990067984888424, 0.28990067984888424]",True,False,lighter,,0.5656701000407338,up,down,"(0, 0)","(0, 0)","(1, 1)","(0, 0)","(0, 0)","(0, 0)","(0, 1)","(1, 0)"
empty,71,9.629315060441517,-0.003579260127670153,-0.335,none_l,True,3.574572600016836,left,3.8415483999997377,True,"[-0.33857926012767015, -0.33857926012767015, -0.33857926012767015]",False,False,darker,True,0.7178128000232391,right,down,"(0, 0)","(0, 0)","(0, 1)","(1, 0)","(0, 0)","(0, 0)","(0, 1)","(1, 0)"
interactor,72,9.189491086744757,0.3632728072564301,0.0,45_bottom_l,False,,,3.8582151999580674,True,"[0.3632728072564301, 0.3632728072564301, 0.3632728072564301]",True,False,lighter,,1.1659038999932818,right,left,"(0, 0)","(0, 0)","(0, 0)","(1, 1)","(1, 0)","(0, 0)","(0, 0)","(0, 1)"
empty,73,9.758560577919939,0.19194253924889523,0.168,none_r,False,,,3.859209300018847,True,"[0.35994253924889524, 0.35994253924889524, 0.35994253924889524]",True,True,lighter,True,0.6839274999802001,left,right,"(0, 0)","(1, 1)","(0, 0)","(0, 0)","(0, 0)","(1, 1)","(0, 0)","(0, 0)"
interactor,74,9.171324678194114,0.25260107581557395,-0.335,135_top_l,True,3.5726752000045963,,3.8402345000067726,True,"[-0.08239892418442607, -0.08239892418442607, -0.08239892418442607]",False,True,,False,,right,down,"(0, 0)","(0, 0)","(0, 1)","(1, 0)","(0, 0)","(0, 0)","(1, 1)","(0, 0)"
empty,75,9.510976207765458,0.5474486580466099,0.0,none_r,True,3.5761543000116944,right,3.8411902000079863,True,"[0.5474486580466099, 0.5474486580466099, 0.5474486580466099]",False,False,lighter,,0.817870800034143,left,down,"(0, 0)","(1, 0)","(0, 1)","(0, 0)","(0, 0)","(1, 0)","(0, 1)","(0, 0)"
empty,76,9.238949093671827,-0.07478538887995861,0.168,none_r,False,,,3.8583247999777086,True,"[0.0932146111200414, 0.0932146111200414, 0.0932146111200414]",True,True,,False,,left,right,"(0, 0)","(1, 1)","(0, 0)","(0, 0)","(0, 0)","(1, 1)","(0, 0)","(0, 0)"
empty,77,9.6216271689282,0.17169081408812464,0.168,none_u,False,,,3.859698100015521,True,"[0.3396908140881246, 0.3396908140881246, 0.3396908140881246]",True,True,,False,,down,up,"(1, 1)","(0, 0)","(0, 0)","(0, 0)","(1, 1)","(0, 0)","(0, 0)","(0, 0)"
interactor,78,9.41623952328895,0.1005943430073005,-0.168,45_top_r,True,3.57487620000029,,3.841220800008159,True,"[-0.06740565699269951, -0.06740565699269951, -0.06740565699269951]",False,True,,False,,left,down,"(0, 0)","(1, 0)","(0, 1)","(0, 0)","(0, 0)","(0, 0)","(1, 1)","(0, 0)"
interactor,79,9.172093743160012,-0.170799550978225,0.335,135_top_l,False,,,3.8581756000057794,True,"[0.16420044902177502, 0.16420044902177502, 0.16420044902177502]",True,False,darker,False,1.0008396999910474,right,left,"(0, 0)","(0, 0)","(0, 0)","(1, 1)","(0, 0)","(0, 0)","(1, 0)","(0, 1)"
interactor,80,9.658052950230172,-0.2870921590335528,0.0,135_bottom_d,True,3.574473099957686,,3.841073099989444,True,"[-0.2870921590335528, -0.2870921590335528, -0.2870921590335528]",False,True,,False,,up,left,"(0, 0)","(0, 0)","(1, 0)","(0, 1)","(0, 0)","(0, 0)","(0, 0)","(1, 1)"
interactor,81,9.700698582996957,-0.11906463919888835,0.335,135_bottom_r,True,3.5744449999765493,,3.8419570999685675,True,"[0.21593536080111167, 0.21593536080111167, 0.21593536080111167]",False,True,darker,False,1.149366200028453,left,up,"(0, 1)","(1, 0)","(0, 0)","(0, 0)","(1, 1)","(0, 0)","(0, 0)","(0, 0)"
interactor,82,9.364287543797255,0.23338147843045398,0.335,135_bottom_r,False,,,3.8586532000335865,True,"[0.568381478430454, 0.568381478430454, 0.568381478430454]",True,False,lighter,True,0.7000448000035249,left,right,"(0, 0)","(1, 1)","(0, 0)","(0, 0)","(1, 0)","(0, 1)","(0, 0)","(0, 0)"
empty,83,9.403347729874362,-0.036813964360051854,0.0,none_u,False,,,3.857804200029932,True,"[-0.036813964360051854, -0.036813964360051854, -0.036813964360051854]",True,True,darker,,1.0003632999723777,down,up,"(1, 1)","(0, 0)","(0, 0)","(0, 0)","(1, 1)","(0, 0)","(0, 0)","(0, 0)"
interactor,84,9.534157309883685,0.04034528576478601,0.168,135_bottom_r,False,,,3.8581132999970578,True,"[0.208345285764786, 0.208345285764786, 0.208345285764786]",True,False,,False,,left,right,"(0, 0)","(1, 1)","(0, 0)","(0, 0)","(1, 0)","(0, 1)","(0, 0)","(0, 0)"
empty,85,9.534796158242074,0.1677811388991092,-0.335,none_l,True,3.5761784000205807,right,3.841204900003504,True,"[-0.16721886110089082, -0.16721886110089082, -0.16721886110089082]",False,False,darker,True,0.6514550999854691,right,up,"(0, 1)","(0, 0)","(0, 0)","(1, 0)","(0, 1)","(0, 0)","(0, 0)","(1, 0)"
interactor,86,9.465640683144624,0.14711800946060893,0.335,135_bottom_d,True,3.574564000009559,,3.840665900032036,True,"[0.48211800946060895, 0.48211800946060895, 0.48211800946060895]",False,True,lighter,True,0.9015406999969855,up,left,"(0, 0)","(0, 0)","(1, 0)","(0, 1)","(0, 0)","(0, 0)","(0, 0)","(1, 1)"
interactor,87,9.536785015116108,-0.012138033812865767,-0.168,45_bottom_l,True,3.5750592999975197,,3.840433800010942,True,"[-0.18013803381286578, -0.18013803381286578, -0.18013803381286578]",False,True,darker,True,1.0176165999728255,right,up,"(0, 1)","(0, 0)","(0, 0)","(1, 0)","(1, 1)","(0, 0)","(0, 0)","(0, 0)"
empty,88,9.49069647782927,-0.05521103915103692,0.0,none_d,False,,,3.8586390999844298,True,"[-0.05521103915103692, -0.05521103915103692, -0.05521103915103692]",True,True,lighter,,0.6492628999985754,up,down,"(0, 0)","(0, 0)","(1, 1)","(0, 0)","(0, 0)","(0, 0)","(1, 1)","(0, 0)"
empty,89,9.573089802106487,-0.5025538819204822,-0.168,none_l,True,3.574956399970688,left,3.8412592000095174,True,"[-0.6705538819204823, -0.6705538819204823, -0.6705538819204823]",False,False,darker,True,1.1682353999931365,right,down,"(0, 0)","(0, 0)","(0, 1)","(1, 0)","(0, 0)","(0, 0)","(0, 1)","(1, 0)"
empty,90,9.913381673415723,0.05255009688322364,-0.168,none_r,False,,,3.8582573999883607,True,"[-0.11544990311677637, -0.11544990311677637, -0.11544990311677637]",True,True,,False,,left,right,"(0, 0)","(1, 1)","(0, 0)","(0, 0)","(0, 0)","(1, 1)","(0, 0)","(0, 0)"
empty,91,9.556415945677477,0.08380242498001218,0.335,none_l,True,3.576180399977602,left,3.8426842999760993,True,"[0.4188024249800122, 0.4188024249800122, 0.4188024249800122]",False,False,lighter,True,0.8335570000344887,right,down,"(0, 0)","(0, 0)","(0, 1)","(1, 0)","(0, 0)","(0, 0)","(0, 1)","(1, 0)"
interactor,92,9.398452964736268,-0.035768233634352414,-0.168,45_bottom_d,False,,,3.8573010000400245,True,"[-0.20376823363435242, -0.20376823363435242, -0.20376823363435242]",True,False,,False,,up,down,"(0, 0)","(0, 0)","(1, 1)","(0, 0)","(0, 0)","(1, 0)","(0, 1)","(0, 0)"
empty,93,9.513506674012675,0.07036558510678523,-0.335,none_r,True,3.5755755999707617,right,3.8426543999812566,True,"[-0.2646344148932148, -0.2646344148932148, -0.2646344148932148]",False,False,darker,True,1.0493276999914087,left,down,"(0, 0)","(1, 0)","(0, 1)","(0, 0)","(0, 0)","(1, 0)","(0, 1)","(0, 0)"
interactor,94,9.177885675818011,0.16136529349037004,0.168,135_top_u,False,,,3.8582168000284582,True,"[0.32936529349037, 0.32936529349037, 0.32936529349037]",True,False,,False,,down,up,"(1, 1)","(0, 0)","(0, 0)","(0, 0)","(0, 1)","(1, 0)","(0, 0)","(0, 0)"
empty,95,9.47605329925604,0.3920944264059446,0.335,none_u,False,,,3.8577666000346653,True,"[0.7270944264059447, 0.7270944264059447, 0.7270944264059447]",True,True,,False,,down,up,"(1, 1)","(0, 0)","(0, 0)","(0, 0)","(1, 1)","(0, 0)","(0, 0)","(0, 0)"
interactor,96,9.702285964610523,-0.009628078966359782,0.0,45_top_r,True,3.575594199995976,,3.8408850000123493,True,"[-0.009628078966359782, -0.009628078966359782, -0.009628078966359782]",False,True,,False,,left,down,"(0, 0)","(1, 0)","(0, 1)","(0, 0)","(0, 0)","(0, 0)","(1, 1)","(0, 0)"
empty,97,9.65930746710646,0.06929383990304905,0.0,none_r,False,,,3.8594307000166737,True,"[0.06929383990304905, 0.06929383990304905, 0.06929383990304905]",True,True,,False,,left,right,"(0, 0)","(1, 1)","(0, 0)","(0, 0)","(0, 0)","(1, 1)","(0, 0)","(0, 0)"
empty,98,9.415979953914702,0.03043027161973605,0.168,none_l,False,,,3.8575971000245772,True,"[0.19843027161973606, 0.19843027161973606, 0.19843027161973606]",True,True,,False,,right,left,"(0, 0)","(0, 0)","(0, 0)","(1, 1)","(0, 0)","(0, 0)","(0, 0)","(1, 1)"
interactor,99,9.34285256537879,0.29401648801341806,0.168,135_top_l,False,,,3.8583632000372745,True,"[0.4620164880134181, 0.4620164880134181, 0.4620164880134181]",True,False,lighter,True,1.4998358999728225,right,left,"(0, 0)","(0, 0)","(0, 0)","(1, 1)","(0, 0)","(0, 0)","(1, 0)","(0, 1)"
interactor,100,8.792483325916992,0.1841997075399162,0.168,45_bottom_d,True,3.5736163000110537,,3.841347699984908,True,"[0.35219970753991625, 0.35219970753991625, 0.35219970753991625]",False,True,lighter,True,0.9663368000183254,up,right,"(0, 0)","(0, 1)","(1, 0)","(0, 0)","(0, 0)","(1, 1)","(0, 0)","(0, 0)"
interactor,101,9.249353988235766,-0.05303999185401595,-0.335,45_bottom_d,True,3.575891699991189,,3.8421449000015855,True,"[-0.38803999185401594, -0.38803999185401594, -0.38803999185401594]",False,True,darker,True,0.584249900013674,up,right,"(0, 0)","(0, 1)","(1, 0)","(0, 0)","(0, 0)","(1, 1)","(0, 0)","(0, 0)"
interactor,102,9.881173785628217,0.2234399751459733,0.335,45_top_u,True,3.575544099963736,,3.8589999999967404,True,"[0.5584399751459733, 0.5584399751459733, 0.5584399751459733]",False,True,lighter,True,0.8338441000087187,down,left,"(1, 0)","(0, 0)","(0, 0)","(0, 1)","(0, 0)","(0, 0)","(0, 0)","(1, 1)"
empty,103,9.668492148047799,0.05976167154089093,0.0,none_r,True,3.5745963999652304,right,3.8408498999779113,True,"[0.05976167154089093, 0.05976167154089093, 0.05976167154089093]",False,False,lighter,,1.2335763999726623,left,down,"(0, 0)","(1, 0)","(0, 1)","(0, 0)","(0, 0)","(1, 0)","(0, 1)","(0, 0)"
empty,104,9.093667169269276,0.4406027827602028,0.335,none_u,True,3.5753423999994993,left,3.842472699994687,True,"[0.7756027827602028, 0.7756027827602028, 0.7756027827602028]",False,False,lighter,True,1.048166399996262,down,left,"(1, 0)","(0, 0)","(0, 0)","(0, 1)","(1, 0)","(0, 0)","(0, 0)","(0, 1)"
interactor,105,9.043105811205496,0.11092228504319132,0.168,135_bottom_r,True,3.5762489999760874,,3.841647599998396,True,"[0.27892228504319133, 0.27892228504319133, 0.27892228504319133]",False,True,,False,,left,up,"(0, 1)","(1, 0)","(0, 0)","(0, 0)","(1, 1)","(0, 0)","(0, 0)","(0, 0)"
empty,106,9.450677935348462,0.5603192807810333,0.335,none_u,False,,,3.8571651999955066,True,"[0.8953192807810333, 0.8953192807810333, 0.8953192807810333]",True,True,lighter,True,0.6834049000171944,down,up,"(1, 1)","(0, 0)","(0, 0)","(0, 0)","(1, 1)","(0, 0)","(0, 0)","(0, 0)"
interactor,107,9.576464896785904,0.19037431471478133,-0.335,45_bottom_d,True,3.574928500049282,,3.8415848000440747,True,"[-0.14462568528521869, -0.14462568528521869, -0.14462568528521869]",False,True,,False,,up,right,"(0, 0)","(0, 1)","(1, 0)","(0, 0)","(0, 0)","(1, 1)","(0, 0)","(0, 0)"
empty,108,9.606873356154784,0.0412961523869944,0.168,none_r,False,,,3.85707560001174,True,"[0.2092961523869944, 0.2092961523869944, 0.2092961523869944]",True,True,lighter,True,0.6505533999879844,left,right,"(0, 0)","(1, 1)","(0, 0)","(0, 0)","(0, 0)","(1, 1)","(0, 0)","(0, 0)"
empty,109,9.513888519995685,0.03970902986353135,0.0,none_r,False,,,3.8586545000434853,True,"[0.03970902986353135, 0.03970902986353135, 0.03970902986353135]",True,True,lighter,,0.5511380999814719,left,right,"(0, 0)","(1, 1)","(0, 0)","(0, 0)","(0, 0)","(1, 1)","(0, 0)","(0, 0)"
interactor,110,9.310613433254101,0.09596334548964303,0.335,135_top_u,False,,,3.859093299950473,True,"[0.43096334548964305, 0.43096334548964305, 0.43096334548964305]",True,False,lighter,True,0.6170079000294209,down,up,"(1, 1)","(0, 0)","(0, 0)","(0, 0)","(0, 1)","(1, 0)","(0, 0)","(0, 0)"
interactor,111,9.362441893106569,0.02951040277162638,-0.168,45_bottom_d,True,3.573669900011737,,3.840318300004583,True,"[-0.13848959722837362, -0.13848959722837362, -0.13848959722837362]",False,True,darker,True,0.6845565999974497,up,right,"(0, 0)","(0, 1)","(1, 0)","(0, 0)","(0, 0)","(1, 1)","(0, 0)","(0, 0)"
empty,112,9.432174773371589,0.19475541169062388,0.0,none_d,False,,,3.8579845000058413,True,"[0.19475541169062388, 0.19475541169062388, 0.19475541169062388]",True,True,lighter,,0.6997168000089005,up,down,"(0, 0)","(0, 0)","(1, 1)","(0, 0)","(0, 0)","(0, 0)","(1, 1)","(0, 0)"
empty,113,9.355148158015421,0.1585341950765686,-0.168,none_l,False,,,3.8580110000330023,True,"[-0.009465804923431409, -0.009465804923431409, -0.009465804923431409]",True,True,darker,True,0.7348970999591984,right,left,"(0, 0)","(0, 0)","(0, 0)","(1, 1)","(0, 0)","(0, 0)","(0, 0)","(1, 1)"
interactor,114,9.176837048446755,0.09822518093603946,0.168,135_bottom_r,False,,,3.8584926999756135,True,"[0.2662251809360395, 0.2662251809360395, 0.2662251809360395]",True,False,lighter,True,0.9514378000167198,left,right,"(0, 0)","(1, 1)","(0, 0)","(0, 0)","(1, 0)","(0, 1)","(0, 0)","(0, 0)"
interactor,115,9.020487810296197,0.2072407606345308,0.0,45_bottom_l,True,3.5755204999586567,,3.8420396999572404,True,"[0.2072407606345308, 0.2072407606345308, 0.2072407606345308]",False,True,darker,,0.766423900029622,right,up,"(0, 1)","(0, 0)","(0, 0)","(1, 0)","(1, 1)","(0, 0)","(0, 0)","(0, 0)"
empty,116,9.66146454774943,-0.23376857652562757,0.0,none_d,True,3.57586879999144,left,3.842867599974852,True,"[-0.23376857652562757, -0.23376857652562757, -0.23376857652562757]",False,False,darker,,1.0831018000026233,up,right,"(0, 0)","(0, 1)","(1, 0)","(0, 0)","(0, 0)","(0, 1)","(1, 0)","(0, 0)"
empty,117,9.27013846515068,-0.02027449428273928,-0.335,none_r,True,3.574940200021956,left,3.8429377000429668,True,"[-0.3552744942827393, -0.3552744942827393, -0.3552744942827393]",False,False,darker,True,0.765308299975004,left,up,"(0, 1)","(1, 0)","(0, 0)","(0, 0)","(0, 1)","(1, 0)","(0, 0)","(0, 0)"
interactor,118,9.525755559267058,0.4033516012089142,-0.168,135_top_u,True,3.5747985999914818,,3.8422520000021905,True,"[0.2353516012089142, 0.2353516012089142, 0.2353516012089142]",False,True,lighter,False,1.0496793999918737,down,right,"(1, 0)","(0, 1)","(0, 0)","(0, 0)","(0, 0)","(1, 1)","(0, 0)","(0, 0)"
empty,119,9.436830653921831,0.13369146271616278,-0.168,none_d,False,,,3.8589062999817543,True,"[-0.03430853728383723, -0.03430853728383723, -0.03430853728383723]",True,True,lighter,False,1.050063600006979,up,down,"(0, 0)","(0, 0)","(1, 1)","(0, 0)","(0, 0)","(0, 0)","(1, 1)","(0, 0)"
empty,120,9.463775135175517,0.1114731452875617,0.0,none_r,False,,,3.858542000001762,True,"[0.1114731452875617, 0.1114731452875617, 0.1114731452875617]",True,True,lighter,,0.7830140999867581,left,right,"(0, 0)","(1, 1)","(0, 0)","(0, 0)","(0, 0)","(1, 1)","(0, 0)","(0, 0)"
interactor,121,9.316805040942203,0.20537739910913505,-0.335,45_bottom_l,True,3.5760387999471277,,3.8424061999539845,True,"[-0.12962260089086497, -0.12962260089086497, -0.12962260089086497]",False,True,darker,True,0.6837711000116542,right,up,"(0, 1)","(0, 0)","(0, 0)","(1, 0)","(1, 1)","(0, 0)","(0, 0)","(0, 0)"
interactor,122,9.52312038864523,0.1482836205966591,0.0,45_top_r,False,,,3.8586422000080347,True,"[0.1482836205966591, 0.1482836205966591, 0.1482836205966591]",True,False,,False,,left,right,"(0, 0)","(1, 1)","(0, 0)","(0, 0)","(0, 0)","(0, 1)","(1, 0)","(0, 0)"
empty,123,9.297170952833495,0.35570542547058415,0.0,none_r,False,,,3.859150899981614,True,"[0.35570542547058415, 0.35570542547058415, 0.35570542547058415]",True,True,,False,,left,right,"(0, 0)","(1, 1)","(0, 0)","(0, 0)","(0, 0)","(1, 1)","(0, 0)","(0, 0)"
empty,124,9.37874460308951,-0.04161059217643007,-0.335,none_l,True,3.5727612000191584,left,3.839260699984152,True,"[-0.3766105921764301, -0.3766105921764301, -0.3766105921764301]",False,False,darker,True,0.8837038000347093,right,down,"(0, 0)","(0, 0)","(0, 1)","(1, 0)","(0, 0)","(0, 0)","(0, 1)","(1, 0)"
interactor,125,9.209795412909587,-0.2769219107480796,-0.168,135_bottom_d,False,,,3.8585548999835737,True,"[-0.44492191074807963, -0.44492191074807963, -0.44492191074807963]",True,False,,False,,up,down,"(0, 0)","(0, 0)","(1, 1)","(0, 0)","(0, 0)","(0, 0)","(0, 1)","(1, 0)"
empty,126,9.224568926263544,-0.1263419998771699,-0.335,none_l,False,,,3.8578724000253715,True,"[-0.46134199987716995, -0.46134199987716995, -0.46134199987716995]",True,True,darker,True,0.5827846999745816,right,left,"(0, 0)","(0, 0)","(0, 0)","(1, 1)","(0, 0)","(0, 0)","(0, 0)","(1, 1)"
empty,127,9.968276732044947,0.10470289013826711,-0.168,none_d,True,3.5755260000005364,right,3.8587784999981523,True,"[-0.0632971098617329, -0.0632971098617329, -0.0632971098617329]",False,False,darker,True,0.9176396000548266,up,left,"(0, 0)","(0, 0)","(1, 0)","(0, 1)","(0, 0)","(0, 0)","(1, 0)","(0, 1)"
interactor,128,9.066371326770497,0.12136370956970483,-0.335,45_top_u,True,3.5765174999833107,,3.841740200005006,True,"[-0.2136362904302952, -0.2136362904302952, -0.2136362904302952]",False,True,darker,True,0.9012799999909475,down,left,"(1, 0)","(0, 0)","(0, 0)","(0, 1)","(0, 0)","(0, 0)","(0, 0)","(1, 1)"
empty,129,9.312409298444008,0.2739215730823229,0.335,none_d,False,,,3.858921100036241,True,"[0.608921573082323, 0.608921573082323, 0.608921573082323]",True,True,lighter,True,0.8504164000041783,up,down,"(0, 0)","(0, 0)","(1, 1)","(0, 0)","(0, 0)","(0, 0)","(1, 1)","(0, 0)"
interactor,130,9.446347871326374,-0.12498893810523973,0.168,45_top_r,False,,,3.8576241999980994,True,"[0.04301106189476028, 0.04301106189476028, 0.04301106189476028]",True,False,lighter,True,0.7847898000036366,left,right,"(0, 0)","(1, 1)","(0, 0)","(0, 0)","(0, 0)","(0, 1)","(1, 0)","(0, 0)"
empty,131,9.784505526998924,-0.023922446414089277,-0.335,none_d,True,3.5749553000205196,left,3.8430829999851994,True,"[-0.3589224464140893, -0.3589224464140893, -0.3589224464140893]",False,False,darker,True,0.93235379998805,up,right,"(0, 0)","(0, 1)","(1, 0)","(0, 0)","(0, 0)","(0, 1)","(1, 0)","(0, 0)"
empty,132,9.621902890007531,0.17527419654654064,0.0,none_u,True,3.5738484000321478,right,3.8424020999809727,True,"[0.17527419654654064, 0.17527419654654064, 0.17527419654654064]",False,False,lighter,,0.5495995000237599,down,right,"(1, 0)","(0, 1)","(0, 0)","(0, 0)","(1, 0)","(0, 1)","(0, 0)","(0, 0)"
interactor,133,9.703470378268149,0.3831157377762343,0.168,135_bottom_d,False,,,3.859167599992361,True,"[0.5511157377762343, 0.5511157377762343, 0.5511157377762343]",True,False,lighter,True,0.5160071999998763,up,down,"(0, 0)","(0, 0)","(1, 1)","(0, 0)","(0, 0)","(0, 0)","(0, 1)","(1, 0)"
interactor,134,9.566699143632945,-0.04066132393145305,-0.168,45_bottom_l,False,,,3.8593225000076927,True,"[-0.20866132393145306, -0.20866132393145306, -0.20866132393145306]",True,False,darker,True,1.0158031999599189,right,left,"(0, 0)","(0, 0)","(0, 0)","(1, 1)","(1, 0)","(0, 0)","(0, 0)","(0, 1)"
interactor,135,9.177156000013653,0.32164206793111794,-0.335,135_top_u,True,3.5751305000158027,,3.8418390000006184,True,"[-0.013357932068882084, -0.013357932068882084, -0.013357932068882084]",False,True,,False,,down,right,"(1, 0)","(0, 1)","(0, 0)","(0, 0)","(0, 0)","(1, 1)","(0, 0)","(0, 0)"
empty,136,9.272136798640128,0.08006241692957455,0.168,none_r,True,3.5753910000203177,right,3.8429533999878913,True,"[0.24806241692957456, 0.24806241692957456, 0.24806241692957456]",False,False,lighter,True,0.7653393000364304,left,down,"(0, 0)","(1, 0)","(0, 1)","(0, 0)","(0, 0)","(1, 0)","(0, 1)","(0, 0)"
empty,137,10.04033473937352,0.2563097456987141,0.168,none_u,True,3.5755236000404693,left,3.858815199986566,True,"[0.42430974569871416, 0.42430974569871416, 0.42430974569871416]",False,False,lighter,True,1.1826635000179522,down,left,"(1, 0)","(0, 0)","(0, 0)","(0, 1)","(1, 0)","(0, 0)","(0, 0)","(0, 1)"
empty,138,9.40801090941247,-0.24020031022572944,0.335,none_u,True,3.575479199993424,right,3.84061539999675,True,"[0.09479968977427058, 0.09479968977427058, 0.09479968977427058]",False,False,lighter,True,0.6005336999660358,down,right,"(1, 0)","(0, 1)","(0, 0)","(0, 0)","(1, 0)","(0, 1)","(0, 0)","(0, 0)"
empty,139,9.942978440156121,0.02345957286541661,0.335,none_d,False,,,3.8594598000054248,True,"[0.35845957286541663, 0.35845957286541663, 0.35845957286541663]",True,True,lighter,True,0.8319842999917455,up,down,"(0, 0)","(0, 0)","(1, 1)","(0, 0)","(0, 0)","(0, 0)","(1, 1)","(0, 0)"
interactor,140,9.168867638701172,0.44482606768539923,-0.168,45_top_r,True,3.5744804999558255,,3.8418217999860644,True,"[0.2768260676853992, 0.2768260676853992, 0.2768260676853992]",False,True,lighter,False,0.6998434999841265,left,down,"(0, 0)","(1, 0)","(0, 1)","(0, 0)","(0, 0)","(0, 0)","(1, 1)","(0, 0)"
interactor,141,9.094702890357635,-0.00012319141043529158,0.335,45_top_r,False,,,3.8580484999693,True,"[0.3348768085895647, 0.3348768085895647, 0.3348768085895647]",True,False,lighter,True,0.6661600000225008,left,right,"(0, 0)","(1, 1)","(0, 0)","(0, 0)","(0, 0)","(0, 1)","(1, 0)","(0, 0)"
empty,142,9.389728417267374,0.28264085209773004,-0.335,none_u,False,,,3.8571157999685965,True,"[-0.052359147902269976, -0.052359147902269976, -0.052359147902269976]",True,True,darker,True,0.5509605000261217,down,up,"(1, 1)","(0, 0)","(0, 0)","(0, 0)","(1, 1)","(0, 0)","(0, 0)","(0, 0)"
empty,143,9.93271120453512,0.24148619712875602,0.335,none_l,True,3.5744839999824762,right,3.858124200021848,True,"[0.576486197128756, 0.576486197128756, 0.576486197128756]",False,False,lighter,True,0.8491420999635011,right,up,"(0, 1)","(0, 0)","(0, 0)","(1, 0)","(0, 1)","(0, 0)","(0, 0)","(1, 0)"
empty,144,9.206495194412987,0.1933715519235957,-0.168,none_d,False,,,3.858256599982269,True,"[0.025371551923595692, 0.025371551923595692, 0.025371551923595692]",True,True,lighter,False,0.7008709000074305,up,down,"(0, 0)","(0, 0)","(1, 1)","(0, 0)","(0, 0)","(0, 0)","(1, 1)","(0, 0)"
interactor,145,9.539167143479766,0.038282279769673966,-0.168,45_bottom_d,False,,,3.858449899998959,True,"[-0.12971772023032604, -0.12971772023032604, -0.12971772023032604]",True,False,darker,True,0.7833748999983072,up,down,"(0, 0)","(0, 0)","(1, 1)","(0, 0)","(0, 0)","(1, 0)","(0, 1)","(0, 0)"
empty,146,9.64243547852713,0.29900403789124097,0.168,none_u,False,,,3.856868500006385,True,"[0.467004037891241, 0.467004037891241, 0.467004037891241]",True,True,lighter,True,0.5841320999898016,down,up,"(1, 1)","(0, 0)","(0, 0)","(0, 0)","(1, 1)","(0, 0)","(0, 0)","(0, 0)"
empty,147,9.720597191803023,0.03745424771575494,-0.168,none_r,True,3.5745808000210673,right,3.8408639000263065,True,"[-0.1305457522842451, -0.1305457522842451, -0.1305457522842451]",False,False,darker,True,0.6994392999913543,left,down,"(0, 0)","(1, 0)","(0, 1)","(0, 0)","(0, 0)","(1, 0)","(0, 1)","(0, 0)"
empty,148,9.608714053089097,0.23516148307735774,-0.335,none_r,True,3.5739321000291966,right,3.8390944999991916,True,"[-0.09983851692264228, -0.09983851692264228, -0.09983851692264228]",False,False,,False,,left,down,"(0, 0)","(1, 0)","(0, 1)","(0, 0)","(0, 0)","(1, 0)","(0, 1)","(0, 0)"
interactor,149,9.384968411325632,-0.13494291679933243,0.0,135_top_u,True,3.5753676999593154,,3.843011299963109,True,"[-0.13494291679933243, -0.13494291679933243, -0.13494291679933243]",False,True,,False,,down,right,"(1, 0)","(0, 1)","(0, 0)","(0, 0)","(0, 0)","(1, 1)","(0, 0)","(0, 0)"
interactor,150,9.552083392584853,-0.2998218002771612,0.168,135_bottom_d,False,,,3.8562463999842294,True,"[-0.1318218002771612, -0.1318218002771612, -0.1318218002771612]",True,False,lighter,True,0.7677159000304528,up,down,"(0, 0)","(0, 0)","(1, 1)","(0, 0)","(0, 0)","(0, 0)","(0, 1)","(1, 0)"
interactor,151,9.651101016643647,0.22220332075292357,0.168,45_top_u,False,,,3.8579205999849364,True,"[0.3902033207529236, 0.3902033207529236, 0.3902033207529236]",True,False,,False,,down,up,"(1, 1)","(0, 0)","(0, 0)","(0, 0)","(0, 1)","(0, 0)","(0, 0)","(1, 0)"
empty,152,9.571489806073338,-0.23114361310861195,0.0,none_d,False,,,3.858075700001791,True,"[-0.23114361310861195, -0.23114361310861195, -0.23114361310861195]",True,True,lighter,,1.017773200001102,up,down,"(0, 0)","(0, 0)","(1, 1)","(0, 0)","(0, 0)","(0, 0)","(1, 1)","(0, 0)"
empty,153,9.132626424548173,0.20413401210134427,0.335,none_d,False,,,3.8585822000168264,True,"[0.5391340121013443, 0.5391340121013443, 0.5391340121013443]",True,True,lighter,True,0.6845729000051506,up,down,"(0, 0)","(0, 0)","(1, 1)","(0, 0)","(0, 0)","(0, 0)","(1, 1)","(0, 0)"
interactor,154,9.155037597173344,-0.17899288126019727,0.335,135_bottom_d,False,,,3.858029399998486,True,"[0.15600711873980275, 0.15600711873980275, 0.15600711873980275]",True,False,lighter,True,0.6332043000147678,up,down,"(0, 0)","(0, 0)","(1, 1)","(0, 0)","(0, 0)","(0, 0)","(0, 1)","(1, 0)"
interactor,155,9.409082095633572,-0.16732266204634563,-0.168,45_top_u,True,3.5738162000197917,,3.842462800035719,True,"[-0.33532266204634564, -0.33532266204634564, -0.33532266204634564]",False,True,darker,True,0.7985115999472328,down,left,"(1, 0)","(0, 0)","(0, 0)","(0, 1)","(0, 0)","(0, 0)","(0, 0)","(1, 1)"
empty,156,9.779162671916096,-0.0043309404120780715,0.0,none_u,True,3.5742375000263564,right,3.84057290002238,True,"[-0.0043309404120780715, -0.0043309404120780715, -0.0043309404120780715]",False,False,lighter,,0.5510578000103123,down,right,"(1, 0)","(0, 1)","(0, 0)","(0, 0)","(1, 0)","(0, 1)","(0, 0)","(0, 0)"
interactor,157,9.739369263285887,-0.18233603294264636,0.335,45_bottom_d,False,,,3.8591797999688424,True,"[0.15266396705735366, 0.15266396705735366, 0.15266396705735366]",True,False,lighter,True,0.7502278000465594,up,down,"(0, 0)","(0, 0)","(1, 1)","(0, 0)","(0, 0)","(1, 0)","(0, 1)","(0, 0)"
empty,158,9.865808398402798,0.3000877009147239,0.168,none_u,True,3.5756406000000425,right,3.8587857999955304,True,"[0.46808770091472396, 0.46808770091472396, 0.46808770091472396]",False,False,lighter,True,0.46613519999664277,down,right,"(1, 0)","(0, 1)","(0, 0)","(0, 0)","(1, 0)","(0, 1)","(0, 0)","(0, 0)"
empty,159,9.343292258707141,0.2900515713903789,-0.168,none_r,False,,,3.8589693000540137,True,"[0.1220515713903789, 0.1220515713903789, 0.1220515713903789]",True,True,darker,True,0.9821681999601424,left,right,"(0, 0)","(1, 1)","(0, 0)","(0, 0)","(0, 0)","(1, 1)","(0, 0)","(0, 0)"
empty,160,9.623833972982302,0.23762542946057352,-0.168,none_r,True,3.574796700035222,left,3.840759099985007,True,"[0.06962542946057351, 0.06962542946057351, 0.06962542946057351]",False,False,darker,True,0.9503917000256479,left,up,"(0, 1)","(1, 0)","(0, 0)","(0, 0)","(0, 1)","(1, 0)","(0, 0)","(0, 0)"
interactor,161,9.361307781907819,-0.04694710993503853,0.168,45_bottom_d,True,3.5759687999961898,,3.843481399992015,True,"[0.12105289006496148, 0.12105289006496148, 0.12105289006496148]",False,True,,False,,up,right,"(0, 0)","(0, 1)","(1, 0)","(0, 0)","(0, 0)","(1, 1)","(0, 0)","(0, 0)"
empty,162,9.469983893580189,0.2546514372352271,0.335,none_l,False,,,3.8571996000246145,True,"[0.5896514372352271, 0.5896514372352271, 0.5896514372352271]",True,True,lighter,True,1.0493739999947138,right,left,"(0, 0)","(0, 0)","(0, 0)","(1, 1)","(0, 0)","(0, 0)","(0, 0)","(1, 1)"
empty,163,9.177092480304868,0.11566469447460445,0.335,none_r,False,,,3.8586786999949254,True,"[0.45066469447460444, 0.45066469447460444, 0.45066469447460444]",True,True,lighter,True,0.7667949000024237,left,right,"(0, 0)","(1, 1)","(0, 0)","(0, 0)","(0, 0)","(1, 1)","(0, 0)","(0, 0)"
interactor,164,9.102504686691976,0.08260470580930504,-0.335,135_bottom_r,True,3.574350200011395,,3.8409071000060067,True,"[-0.25239529419069495, -0.25239529419069495, -0.25239529419069495]",False,True,darker,True,0.8504918999969959,left,up,"(0, 1)","(1, 0)","(0, 0)","(0, 0)","(1, 1)","(0, 0)","(0, 0)","(0, 0)"
interactor,165,9.275416398411378,0.17224835804817504,-0.168,135_bottom_d,True,3.57555060001323,,3.8420412000268698,True,"[0.004248358048175027, 0.004248358048175027, 0.004248358048175027]",False,True,x,,,up,left,"(0, 0)","(0, 0)","(1, 0)","(0, 1)","(0, 0)","(0, 0)","(0, 0)","(1, 1)"
empty,166,9.33901223802453,-0.000315479514824496,0.168,none_l,True,3.573789599991869,left,3.8409497000393458,True,"[0.16768452048517551, 0.16768452048517551, 0.16768452048517551]",False,False,lighter,True,1.0328073999844491,right,down,"(0, 0)","(0, 0)","(0, 1)","(1, 0)","(0, 0)","(0, 0)","(0, 1)","(1, 0)"
interactor,167,9.743317846336488,0.28980086882585276,0.0,45_bottom_d,False,,,3.8576428999658674,True,"[0.28980086882585276, 0.28980086882585276, 0.28980086882585276]",True,False,space,,,up,down,"(0, 0)","(0, 0)","(1, 1)","(0, 0)","(0, 0)","(1, 0)","(0, 1)","(0, 0)"
interactor,168,9.40176409804636,0.2842790886337203,-0.335,135_bottom_d,False,,,3.8587630999973044,True,"[-0.05072091136627971, -0.05072091136627971, -0.05072091136627971]",True,False,darker,True,0.7501138999941759,up,down,"(0, 0)","(0, 0)","(1, 1)","(0, 0)","(0, 0)","(0, 0)","(0, 1)","(1, 0)"
interactor,169,9.822364274527475,0.1230160706965591,-0.168,135_bottom_d,True,3.574569699994754,,3.858403599995654,True,"[-0.04498392930344092, -0.04498392930344092, -0.04498392930344092]",False,True,darker,True,0.8496944999787956,up,left,"(0, 0)","(0, 0)","(1, 0)","(0, 1)","(0, 0)","(0, 0)","(0, 0)","(1, 1)"
empty,170,9.442157854462991,0.00908983904582178,0.168,none_d,False,,,3.857937100052368,True,"[0.1770898390458218, 0.1770898390458218, 0.1770898390458218]",True,True,lighter,True,0.599555499968119,up,down,"(0, 0)","(0, 0)","(1, 1)","(0, 0)","(0, 0)","(0, 0)","(1, 1)","(0, 0)"
interactor,171,8.986922817406924,0.3505644217299734,0.168,45_bottom_d,False,,,3.858638299978338,True,"[0.5185644217299734, 0.5185644217299734, 0.5185644217299734]",True,False,,False,,up,down,"(0, 0)","(0, 0)","(1, 1)","(0, 0)","(0, 0)","(1, 0)","(0, 1)","(0, 0)"
interactor,172,9.837236865046625,0.20310770501790978,-0.168,45_top_r,False,,,3.858266700000968,True,"[0.035107705017909774, 0.035107705017909774, 0.035107705017909774]",True,False,darker,True,0.8332149000489153,left,right,"(0, 0)","(1, 1)","(0, 0)","(0, 0)","(0, 0)","(0, 1)","(1, 0)","(0, 0)"
empty,173,9.366234318906491,0.258094817297873,0.335,none_l,False,,,3.8590077999979258,True,"[0.593094817297873, 0.593094817297873, 0.593094817297873]",True,True,,False,,right,left,"(0, 0)","(0, 0)","(0, 0)","(1, 1)","(0, 0)","(0, 0)","(0, 0)","(1, 1)"
interactor,174,9.270539989073468,-0.1205671550120391,0.168,135_bottom_r,True,3.573656100023072,,3.841120500001125,True,"[0.04743284498796091, 0.04743284498796091, 0.04743284498796091]",False,True,,False,,left,up,"(0, 1)","(1, 0)","(0, 0)","(0, 0)","(1, 1)","(0, 0)","(0, 0)","(0, 0)"
interactor,175,9.35674927147599,0.14400266730480096,0.0,45_top_r,True,3.575475799967535,,3.842100899957586,True,"[0.14400266730480096, 0.14400266730480096, 0.14400266730480096]",False,True,,False,,left,down,"(0, 0)","(1, 0)","(0, 1)","(0, 0)","(0, 0)","(0, 0)","(1, 1)","(0, 0)"
empty,176,8.927552270627807,0.45282992504831676,0.168,none_l,False,,,3.85799789999146,True,"[0.6208299250483168, 0.6208299250483168, 0.6208299250483168]",True,True,lighter,True,1.166860400000587,right,left,"(0, 0)","(0, 0)","(0, 0)","(1, 1)","(0, 0)","(0, 0)","(0, 0)","(1, 1)"
interactor,177,10.134225892976879,0.18950635482415468,-0.168,135_top_l,False,,,3.859660400019493,True,"[0.021506354824154666, 0.021506354824154666, 0.021506354824154666]",True,False,space,,,right,left,"(0, 0)","(0, 0)","(0, 0)","(1, 1)","(0, 0)","(0, 0)","(1, 0)","(0, 1)"
empty,178,9.326771499803051,0.11167281379464523,0.0,none_l,True,3.5745513000292704,right,3.8409283999935724,True,"[0.11167281379464523, 0.11167281379464523, 0.11167281379464523]",False,False,,False,,right,up,"(0, 1)","(0, 0)","(0, 0)","(1, 0)","(0, 1)","(0, 0)","(0, 0)","(1, 0)"
interactor,179,9.3450498666559,0.05126234558219561,0.0,45_bottom_d,True,3.5759926000027917,,3.842334699991625,True,"[0.05126234558219561, 0.05126234558219561, 0.05126234558219561]",False,True,,False,,up,right,"(0, 0)","(0, 1)","(1, 0)","(0, 0)","(0, 0)","(1, 1)","(0, 0)","(0, 0)"
empty,180,9.87445102161441,0.06933399105104271,-0.168,none_r,False,,,3.856758500041906,True,"[-0.0986660089489573, -0.0986660089489573, -0.0986660089489573]",True,True,darker,True,1.0523172999965027,left,right,"(0, 0)","(1, 1)","(0, 0)","(0, 0)","(0, 0)","(1, 1)","(0, 0)","(0, 0)"
empty,181,9.3162784576378,0.3057981449467504,0.335,none_d,True,3.5753177999868058,left,3.84250659996178,True,"[0.6407981449467504, 0.6407981449467504, 0.6407981449467504]",False,False,lighter,True,1.0504254000261426,up,right,"(0, 0)","(0, 1)","(1, 0)","(0, 0)","(0, 0)","(0, 1)","(1, 0)","(0, 0)"
interactor,182,9.270768588757896,-0.05849203015684498,0.335,45_bottom_d,False,,,3.8566469000070356,True,"[0.27650796984315507, 0.27650796984315507, 0.27650796984315507]",True,False,lighter,True,0.6506499000242911,up,down,"(0, 0)","(0, 0)","(1, 1)","(0, 0)","(0, 0)","(1, 0)","(0, 1)","(0, 0)"
interactor,183,9.26125813225124,0.08671943786804766,0.168,45_bottom_d,False,,,3.8582138000056148,True,"[0.2547194378680477, 0.2547194378680477, 0.2547194378680477]",True,False,lighter,True,0.617168800032232,up,down,"(0, 0)","(0, 0)","(1, 1)","(0, 0)","(0, 0)","(1, 0)","(0, 1)","(0, 0)"
empty,184,8.930803429879205,0.35439792565547734,0.335,none_r,True,3.5745110000134446,right,3.8400795999914408,True,"[0.6893979256554774, 0.6893979256554774, 0.6893979256554774]",False,False,lighter,True,0.8338490000460297,left,down,"(0, 0)","(1, 0)","(0, 1)","(0, 0)","(0, 0)","(1, 0)","(0, 1)","(0, 0)"
empty,185,9.265831303389142,0.1711190295413651,-0.168,none_r,False,,,3.858840600005351,True,"[0.003119029541365087, 0.003119029541365087, 0.003119029541365087]",True,True,darker,True,0.884105599950999,left,right,"(0, 0)","(1, 1)","(0, 0)","(0, 0)","(0, 0)","(1, 1)","(0, 0)","(0, 0)"
interactor,186,9.627660446993074,-0.10314411445865831,0.168,135_top_l,True,3.5750948000350036,,3.8427133000222966,True,"[0.0648558855413417, 0.0648558855413417, 0.0648558855413417]",False,True,lighter,True,0.9322824999690056,right,down,"(0, 0)","(0, 0)","(0, 1)","(1, 0)","(0, 0)","(0, 0)","(1, 1)","(0, 0)"
interactor,187,9.517894917916998,0.0029757338542978073,-0.168,45_bottom_l,False,,,3.8587097999989055,True,"[-0.1650242661457022, -0.1650242661457022, -0.1650242661457022]",True,False,darker,True,0.6334273999673314,right,left,"(0, 0)","(0, 0)","(0, 0)","(1, 1)","(1, 0)","(0, 0)","(0, 0)","(0, 1)"
interactor,188,9.406843901817089,-0.37512566855700114,0.335,45_top_r,True,3.57320179999806,,3.8406765999970958,True,"[-0.040125668557001115, -0.040125668557001115, -0.040125668557001115]",False,True,lighter,True,0.8503145999857225,left,down,"(0, 0)","(1, 0)","(0, 1)","(0, 0)","(0, 0)","(0, 0)","(1, 1)","(0, 0)"
empty,189,9.385635011024577,0.04860383974520914,-0.335,none_l,True,3.5761763000045903,left,3.8434317000210285,True,"[-0.28639616025479087, -0.28639616025479087, -0.28639616025479087]",False,False,darker,True,0.7669664000277407,right,down,"(0, 0)","(0, 0)","(0, 1)","(1, 0)","(0, 0)","(0, 0)","(0, 1)","(1, 0)"
empty,190,9.186742331726187,0.31124256659959326,0.0,none_d,False,,,3.8574101999984123,True,"[0.31124256659959326, 0.31124256659959326, 0.31124256659959326]",True,True,lighter,,0.6839287999900989,up,down,"(0, 0)","(0, 0)","(1, 1)","(0, 0)","(0, 0)","(0, 0)","(1, 1)","(0, 0)"
interactor,191,9.643332956388988,0.12436597621256566,0.335,45_bottom_l,True,3.575308400031645,,3.841683400038164,True,"[0.4593659762125657, 0.4593659762125657, 0.4593659762125657]",False,True,,False,,right,up,"(0, 1)","(0, 0)","(0, 0)","(1, 0)","(1, 1)","(0, 0)","(0, 0)","(0, 0)"
empty,192,9.555051750163008,0.4671952079063417,-0.168,none_u,True,3.5762366999988444,left,3.841834499966353,True,"[0.2991952079063417, 0.2991952079063417, 0.2991952079063417]",False,False,darker,True,0.7002475000335835,down,left,"(1, 0)","(0, 0)","(0, 0)","(0, 1)","(1, 0)","(0, 0)","(0, 0)","(0, 1)"
empty,193,9.461083928626246,-0.06876767179794269,0.0,none_r,True,3.5746041999664158,right,3.8424750000122003,True,"[-0.06876767179794269, -0.06876767179794269, -0.06876767179794269]",False,False,,False,,left,down,"(0, 0)","(1, 0)","(0, 1)","(0, 0)","(0, 0)","(1, 0)","(0, 1)","(0, 0)"
empty,194,8.748320782446585,0.009191146803720823,-0.335,none_d,False,,,3.857447399990633,True,"[-0.32580885319627917, -0.32580885319627917, -0.32580885319627917]",True,True,darker,True,1.0504130000481382,up,down,"(0, 0)","(0, 0)","(1, 1)","(0, 0)","(0, 0)","(0, 0)","(1, 1)","(0, 0)"
empty,195,9.066703529920181,-0.20719087497285352,0.335,none_u,False,,,3.8572182999923825,True,"[0.1278091250271465, 0.1278091250271465, 0.1278091250271465]",True,True,,False,,down,up,"(1, 1)","(0, 0)","(0, 0)","(0, 0)","(1, 1)","(0, 0)","(0, 0)","(0, 0)"
empty,196,9.673852749847557,0.22791959770499962,0.168,none_u,False,,,3.85880200000247,True,"[0.3959195977049996, 0.3959195977049996, 0.3959195977049996]",True,True,,False,,down,up,"(1, 1)","(0, 0)","(0, 0)","(0, 0)","(1, 1)","(0, 0)","(0, 0)","(0, 0)"
empty,197,9.187333248190013,0.12533005713764353,0.0,none_l,True,3.575729499978479,left,3.8407879999722354,True,"[0.12533005713764353, 0.12533005713764353, 0.12533005713764353]",False,False,,False,,right,down,"(0, 0)","(0, 0)","(0, 1)","(1, 0)","(0, 0)","(0, 0)","(0, 1)","(1, 0)"
interactor,198,9.14688007318506,0.11277728856091507,0.168,135_top_l,False,,,3.8559951999923214,True,"[0.2807772885609151, 0.2807772885609151, 0.2807772885609151]",True,False,lighter,True,1.3849145999993198,right,left,"(0, 0)","(0, 0)","(0, 0)","(1, 1)","(0, 0)","(0, 0)","(1, 0)","(0, 1)"
interactor,199,9.645864217534099,0.12322968693733735,0.0,135_top_u,True,3.575888000021223,,3.842449999996461,True,"[0.12322968693733735, 0.12322968693733735, 0.12322968693733735]",False,True,,False,,down,right,"(1, 0)","(0, 1)","(0, 0)","(0, 0)","(0, 0)","(1, 1)","(0, 0)","(0, 0)"
interactor,200,9.499594964242398,0.4043428078753143,0.168,135_top_l,True,3.5744916999829,,3.8420561000239104,True,"[0.5723428078753143, 0.5723428078753143, 0.5723428078753143]",False,True,lighter,True,0.6825571999652311,right,down,"(0, 0)","(0, 0)","(0, 1)","(1, 0)","(0, 0)","(0, 0)","(1, 1)","(0, 0)"
empty,201,9.251153068267774,0.19048132398788775,-0.335,none_u,True,3.574059100006707,left,3.840984300011769,True,"[-0.14451867601211227, -0.14451867601211227, -0.14451867601211227]",False,False,darker,True,1.5173919000080787,down,left,"(1, 0)","(0, 0)","(0, 0)","(0, 1)","(1, 0)","(0, 0)","(0, 0)","(0, 1)"
empty,202,9.68021910070976,0.155936772525253,-0.168,none_d,True,3.5742175999912433,left,3.8410775999655016,True,"[-0.012063227474747001, -0.012063227474747001, -0.012063227474747001]",False,False,,False,,up,right,"(0, 0)","(0, 1)","(1, 0)","(0, 0)","(0, 0)","(0, 1)","(1, 0)","(0, 0)"
interactor,203,9.88840074186867,0.4584606199651997,-0.168,45_top_u,False,,,3.8571449000155553,True,"[0.2904606199651997, 0.2904606199651997, 0.2904606199651997]",True,False,,False,,down,up,"(1, 1)","(0, 0)","(0, 0)","(0, 0)","(0, 1)","(0, 0)","(0, 0)","(1, 0)"
empty,204,9.228408420270162,0.3021671658439997,-0.168,none_r,True,3.573483499989379,right,3.840751099982299,True,"[0.1341671658439997, 0.1341671658439997, 0.1341671658439997]",False,False,,False,,left,down,"(0, 0)","(1, 0)","(0, 1)","(0, 0)","(0, 0)","(1, 0)","(0, 1)","(0, 0)"
empty,205,9.642532547745036,0.3583309274321287,-0.168,none_l,True,3.5758577999658883,left,3.8407646999694407,True,"[0.19033092743212868, 0.19033092743212868, 0.19033092743212868]",False,False,,False,,right,down,"(0, 0)","(0, 0)","(0, 1)","(1, 0)","(0, 0)","(0, 0)","(0, 1)","(1, 0)"
interactor,206,9.202326697226988,0.21025824605053067,0.0,135_bottom_r,False,,,3.8568812999874353,True,"[0.21025824605053067, 0.21025824605053067, 0.21025824605053067]",True,False,,False,,left,right,"(0, 0)","(1, 1)","(0, 0)","(0, 0)","(1, 0)","(0, 1)","(0, 0)","(0, 0)"
interactor,207,9.767625222639587,-0.10891533998413436,0.335,135_top_u,True,3.57427749998169,,3.840871399967,True,"[0.22608466001586566, 0.22608466001586566, 0.22608466001586566]",False,True,lighter,True,0.767077700002119,down,right,"(1, 0)","(0, 1)","(0, 0)","(0, 0)","(0, 0)","(1, 1)","(0, 0)","(0, 0)"
interactor,208,9.563715061158009,0.1695732490945944,0.0,135_top_u,False,,,3.858678199991118,True,"[0.1695732490945944, 0.1695732490945944, 0.1695732490945944]",True,False,darker,,0.8182730000116862,down,up,"(1, 1)","(0, 0)","(0, 0)","(0, 0)","(0, 1)","(1, 0)","(0, 0)","(0, 0)"
empty,209,9.57669100141605,0.2510057758224117,0.0,none_d,True,3.5747109000221826,right,3.840959700057283,True,"[0.2510057758224117, 0.2510057758224117, 0.2510057758224117]",False,False,,False,,up,left,"(0, 0)","(0, 0)","(1, 0)","(0, 1)","(0, 0)","(0, 0)","(1, 0)","(0, 1)"
empty,210,9.479052924038685,0.15581584500814788,-0.335,none_l,True,3.574092600028962,left,3.840407099982258,True,"[-0.17918415499185214, -0.17918415499185214, -0.17918415499185214]",False,False,,False,,right,down,"(0, 0)","(0, 0)","(0, 1)","(1, 0)","(0, 0)","(0, 0)","(0, 1)","(1, 0)"
interactor,211,8.974495792401205,0.2719832367253972,0.168,135_bottom_d,True,3.574105200008489,,3.840050099999644,True,"[0.4399832367253972, 0.4399832367253972, 0.4399832367253972]",False,True,darker,False,0.9187734000151977,up,left,"(0, 0)","(0, 0)","(1, 0)","(0, 1)","(0, 0)","(0, 0)","(0, 0)","(1, 1)"
empty,212,9.587226509799065,0.21651584664303883,0.168,none_u,True,3.573759599996265,right,3.8413617000333034,True,"[0.38451584664303884, 0.38451584664303884, 0.38451584664303884]",False,False,lighter,True,1.2330584999872372,down,right,"(1, 0)","(0, 1)","(0, 0)","(0, 0)","(1, 0)","(0, 1)","(0, 0)","(0, 0)"
interactor,213,8.929369371197039,0.06612719971436422,0.168,45_top_r,False,,,3.8588956000166945,True,"[0.23412719971436424, 0.23412719971436424, 0.23412719971436424]",True,False,lighter,True,0.6830960999941453,left,right,"(0, 0)","(1, 1)","(0, 0)","(0, 0)","(0, 0)","(0, 1)","(1, 0)","(0, 0)"
empty,214,9.439351194789383,0.186684376906586,0.0,none_l,False,,,3.8569579999893904,True,"[0.186684376906586, 0.186684376906586, 0.186684376906586]",True,True,darker,,1.3180863999878056,right,left,"(0, 0)","(0, 0)","(0, 0)","(1, 1)","(0, 0)","(0, 0)","(0, 0)","(1, 1)"
empty,215,9.626624553825627,-0.14352018472440312,-0.335,none_u,False,,,3.8590074999956414,True,"[-0.47852018472440316, -0.47852018472440316, -0.47852018472440316]",True,True,darker,True,0.8497817000024952,down,up,"(1, 1)","(0, 0)","(0, 0)","(0, 0)","(1, 1)","(0, 0)","(0, 0)","(0, 0)"
empty,216,9.538788218637666,-0.26228950696218145,-0.335,none_r,False,,,3.857970299955923,True,"[-0.5972895069621815, -0.5972895069621815, -0.5972895069621815]",True,True,darker,True,0.9354765000171028,left,right,"(0, 0)","(1, 1)","(0, 0)","(0, 0)","(0, 0)","(1, 1)","(0, 0)","(0, 0)"
empty,217,9.505944849648044,-0.06427435055594383,0.0,none_u,False,,,3.858124599966686,True,"[-0.06427435055594383, -0.06427435055594383, -0.06427435055594383]",True,True,darker,,1.1514043000061065,down,up,"(1, 1)","(0, 0)","(0, 0)","(0, 0)","(1, 1)","(0, 0)","(0, 0)","(0, 0)"
interactor,218,9.497918472513065,0.0013635982794652501,0.0,45_bottom_d,True,3.574847600015346,,3.8404478000011295,True,"[0.0013635982794652501, 0.0013635982794652501, 0.0013635982794652501]",False,True,,False,,up,right,"(0, 0)","(0, 1)","(1, 0)","(0, 0)","(0, 0)","(1, 1)","(0, 0)","(0, 0)"
empty,219,9.449390034057275,0.38693800425400743,0.168,none_l,True,3.5740097999805585,left,3.8412864999845624,True,"[0.5549380042540074, 0.5549380042540074, 0.5549380042540074]",False,False,lighter,True,0.7988179000094533,right,down,"(0, 0)","(0, 0)","(0, 1)","(1, 0)","(0, 0)","(0, 0)","(0, 1)","(1, 0)"
interactor,220,9.421897295443806,0.15550532306772524,0.0,45_bottom_l,False,,,3.858404300000984,True,"[0.15550532306772524, 0.15550532306772524, 0.15550532306772524]",True,False,darker,,0.667493800050579,right,left,"(0, 0)","(0, 0)","(0, 0)","(1, 1)","(1, 0)","(0, 0)","(0, 0)","(0, 1)"
empty,221,9.196507601367623,0.04116364219496062,0.168,none_d,True,3.5738207999966107,right,3.841223700030241,True,"[0.20916364219496064, 0.20916364219496064, 0.20916364219496064]",False,False,,False,,up,left,"(0, 0)","(0, 0)","(1, 0)","(0, 1)","(0, 0)","(0, 0)","(1, 0)","(0, 1)"
interactor,222,9.538340940305616,0.2477419790039811,0.0,135_top_l,False,,,3.8582253000349738,True,"[0.2477419790039811, 0.2477419790039811, 0.2477419790039811]",True,False,,False,,right,left,"(0, 0)","(0, 0)","(0, 0)","(1, 1)","(0, 0)","(0, 0)","(1, 0)","(0, 1)"
interactor,223,9.661310273625867,0.14536924218429959,0.168,45_bottom_l,False,,,3.8576784000033513,True,"[0.3133692421842996, 0.3133692421842996, 0.3133692421842996]",True,False,,False,,right,left,"(0, 0)","(0, 0)","(0, 0)","(1, 1)","(1, 0)","(0, 0)","(0, 0)","(0, 1)"
empty,224,9.239455440721231,0.3030655199587736,-0.168,none_d,False,,,3.856701400014572,True,"[0.1350655199587736, 0.1350655199587736, 0.1350655199587736]",True,True,lighter,False,0.8342841999838129,up,down,"(0, 0)","(0, 0)","(1, 1)","(0, 0)","(0, 0)","(0, 0)","(1, 1)","(0, 0)"
empty,225,9.025066001048486,0.5075000038152001,0.0,none_r,True,3.5750893999938853,right,3.842916099994909,True,"[0.5075000038152001, 0.5075000038152001, 0.5075000038152001]",False,False,lighter,,0.817142000014428,left,down,"(0, 0)","(1, 0)","(0, 1)","(0, 0)","(0, 0)","(1, 0)","(0, 1)","(0, 0)"
empty,226,9.30081298804489,-0.055364518024053705,-0.335,none_d,False,,,3.858365899999626,True,"[-0.3903645180240537, -0.3903645180240537, -0.3903645180240537]",True,True,darker,True,0.5665994000155479,up,down,"(0, 0)","(0, 0)","(1, 1)","(0, 0)","(0, 0)","(0, 0)","(1, 1)","(0, 0)"
interactor,227,9.390549075542781,0.4826163409326176,0.335,45_bottom_d,False,,,3.8578586000367068,True,"[0.8176163409326176, 0.8176163409326176, 0.8176163409326176]",True,False,lighter,True,0.5844115999643691,up,down,"(0, 0)","(0, 0)","(1, 1)","(0, 0)","(0, 0)","(1, 0)","(0, 1)","(0, 0)"
empty,228,9.336831007058892,0.41740602964268403,0.168,none_u,False,,,3.858576799975708,True,"[0.5854060296426841, 0.5854060296426841, 0.5854060296426841]",True,True,,False,,down,up,"(1, 1)","(0, 0)","(0, 0)","(0, 0)","(1, 1)","(0, 0)","(0, 0)","(0, 0)"
empty,229,9.626358854676704,0.4619378903259038,0.168,none_l,True,3.5747268000268377,right,3.843111400026828,True,"[0.6299378903259039, 0.6299378903259039, 0.6299378903259039]",False,False,,False,,right,up,"(0, 1)","(0, 0)","(0, 0)","(1, 0)","(0, 1)","(0, 0)","(0, 0)","(1, 0)"
interactor,230,9.486492648441555,0.10019502131983243,-0.335,45_top_u,False,,,3.8562856999924406,True,"[-0.2348049786801676, -0.2348049786801676, -0.2348049786801676]",True,False,darker,True,0.7677111000521109,down,up,"(1, 1)","(0, 0)","(0, 0)","(0, 0)","(0, 1)","(0, 0)","(0, 0)","(1, 0)"
interactor,231,9.5148618801534,0.23387896480442527,0.0,45_bottom_l,False,,,3.857053200015798,True,"[0.23387896480442527, 0.23387896480442527, 0.23387896480442527]",True,False,space,,,right,left,"(0, 0)","(0, 0)","(0, 0)","(1, 1)","(1, 0)","(0, 0)","(0, 0)","(0, 1)"
empty,232,9.651424881484905,-0.13415388998889013,-0.335,none_r,False,,,3.858098400000017,True,"[-0.4691538899888902, -0.4691538899888902, -0.4691538899888902]",True,True,darker,True,0.650603800022509,left,right,"(0, 0)","(1, 1)","(0, 0)","(0, 0)","(0, 0)","(1, 1)","(0, 0)","(0, 0)"
empty,233,9.635101102699082,0.31421277574055007,0.0,none_u,True,3.574069399968721,right,3.8412937999819405,True,"[0.31421277574055007, 0.31421277574055007, 0.31421277574055007]",False,False,space,,,down,right,"(1, 0)","(0, 1)","(0, 0)","(0, 0)","(1, 0)","(0, 1)","(0, 0)","(0, 0)"
interactor,234,9.839272157427882,-0.13480040481333258,0.168,135_top_u,True,3.574534200015478,,3.8588769000489265,True,"[0.03319959518666743, 0.03319959518666743, 0.03319959518666743]",False,True,,False,,down,right,"(1, 0)","(0, 1)","(0, 0)","(0, 0)","(0, 0)","(1, 1)","(0, 0)","(0, 0)"
interactor,235,9.380502888223482,0.20102863307225238,-0.335,135_bottom_r,False,,,3.8581322000245564,True,"[-0.13397136692774764, -0.13397136692774764, -0.13397136692774764]",True,False,darker,True,0.7678330999915488,left,right,"(0, 0)","(1, 1)","(0, 0)","(0, 0)","(1, 0)","(0, 1)","(0, 0)","(0, 0)"
empty,236,9.583947112119079,0.09949363791477925,0.335,none_r,False,,,3.858791500038933,True,"[0.43449363791477924, 0.43449363791477924, 0.43449363791477924]",True,True,lighter,True,0.6993099999963306,left,right,"(0, 0)","(1, 1)","(0, 0)","(0, 0)","(0, 0)","(1, 1)","(0, 0)","(0, 0)"
empty,237,9.751248018469244,0.22570969041984268,-0.168,none_d,False,,,3.859910500003025,True,"[0.05770969041984267, 0.05770969041984267, 0.05770969041984267]",True,True,,False,,up,down,"(0, 0)","(0, 0)","(1, 1)","(0, 0)","(0, 0)","(0, 0)","(1, 1)","(0, 0)"
interactor,238,9.812398342806272,0.11978344342486931,-0.168,135_bottom_r,False,,,3.856945400009863,True,"[-0.0482165565751307, -0.0482165565751307, -0.0482165565751307]",True,False,darker,True,0.6835986999794841,left,right,"(0, 0)","(1, 1)","(0, 0)","(0, 0)","(1, 0)","(0, 1)","(0, 0)","(0, 0)"
empty,239,9.303188073560838,-0.17644325383859197,0.168,none_u,False,,,3.857773100025952,True,"[-0.008443253838591958, -0.008443253838591958, -0.008443253838591958]",True,True,darker,False,0.8854093999834731,down,up,"(1, 1)","(0, 0)","(0, 0)","(0, 0)","(1, 1)","(0, 0)","(0, 0)","(0, 0)"
empty,240,9.265147356471099,0.4157627714657851,0.0,none_d,True,3.573731200012844,right,3.840023900032975,True,"[0.4157627714657851, 0.4157627714657851, 0.4157627714657851]",False,False,,False,,up,left,"(0, 0)","(0, 0)","(1, 0)","(0, 1)","(0, 0)","(0, 0)","(1, 0)","(0, 1)"
interactor,241,9.321153190364187,-0.02094846546179399,-0.168,135_bottom_d,False,,,3.858823799993843,True,"[-0.188948465461794, -0.188948465461794, -0.188948465461794]",True,False,darker,True,0.766470099973958,up,down,"(0, 0)","(0, 0)","(1, 1)","(0, 0)","(0, 0)","(0, 0)","(0, 1)","(1, 0)"
empty,242,9.28759705875763,0.20784153268223957,-0.335,none_r,False,,,3.857931899954565,True,"[-0.12715846731776045, -0.12715846731776045, -0.12715846731776045]",True,True,darker,True,1.0673528999905102,left,right,"(0, 0)","(1, 1)","(0, 0)","(0, 0)","(0, 0)","(1, 1)","(0, 0)","(0, 0)"
empty,243,9.625705360993809,0.026009115744214856,0.0,none_l,True,3.5769289000309072,left,3.8419865000178106,True,"[0.026009115744214856, 0.026009115744214856, 0.026009115744214856]",False,False,,False,,right,down,"(0, 0)","(0, 0)","(0, 1)","(1, 0)","(0, 0)","(0, 0)","(0, 1)","(1, 0)"
empty,244,9.457906759800995,0.32318857528944944,0.0,none_d,True,3.5748253000201657,right,3.841061500017531,True,"[0.32318857528944944, 0.32318857528944944, 0.32318857528944944]",False,False,,False,,up,left,"(0, 0)","(0, 0)","(1, 0)","(0, 1)","(0, 0)","(0, 0)","(1, 0)","(0, 1)"
interactor,245,9.127976799061264,0.20281144523991476,0.0,45_bottom_l,True,3.5745555999455974,,3.841059400001541,True,"[0.20281144523991476, 0.20281144523991476, 0.20281144523991476]",False,True,,False,,right,up,"(0, 1)","(0, 0)","(0, 0)","(1, 0)","(1, 1)","(0, 0)","(0, 0)","(0, 0)"
empty,246,9.444800355742277,0.014471873992153633,-0.168,none_l,False,,,3.8579852000111714,True,"[-0.15352812600784638, -0.15352812600784638, -0.15352812600784638]",True,True,darker,True,0.9014385999762453,right,left,"(0, 0)","(0, 0)","(0, 0)","(1, 1)","(0, 0)","(0, 0)","(0, 0)","(1, 1)"
interactor,247,9.613172787598415,0.08962786156479893,0.168,45_bottom_l,True,3.5755988999735564,,3.8408838999457657,True,"[0.25762786156479894, 0.25762786156479894, 0.25762786156479894]",False,True,,False,,right,up,"(0, 1)","(0, 0)","(0, 0)","(1, 0)","(1, 1)","(0, 0)","(0, 0)","(0, 0)"
interactor,248,9.530396787613856,0.3192931942956476,0.0,45_bottom_d,False,,,3.85901620000368,True,"[0.3192931942956476, 0.3192931942956476, 0.3192931942956476]",True,False,lighter,,0.8981190000195056,up,down,"(0, 0)","(0, 0)","(1, 1)","(0, 0)","(0, 0)","(1, 0)","(0, 1)","(0, 0)"
empty,249,9.324341082284507,-0.1124185852452678,-0.168,none_d,False,,,3.8576741999713704,True,"[-0.2804185852452678, -0.2804185852452678, -0.2804185852452678]",True,True,,False,,up,down,"(0, 0)","(0, 0)","(1, 1)","(0, 0)","(0, 0)","(0, 0)","(1, 1)","(0, 0)"
empty,250,9.539855416467349,0.22730234737547836,0.335,none_r,True,3.5756008000462316,right,3.8410195000469685,True,"[0.5623023473754784, 0.5623023473754784, 0.5623023473754784]",False,False,lighter,True,0.8012143999803811,left,down,"(0, 0)","(1, 0)","(0, 1)","(0, 0)","(0, 0)","(1, 0)","(0, 1)","(0, 0)"
empty,251,9.422345742490226,0.08507784519717553,0.168,none_d,False,,,3.8592745999922045,True,"[0.2530778451971755, 0.2530778451971755, 0.2530778451971755]",True,True,lighter,True,1.1673619000357576,up,down,"(0, 0)","(0, 0)","(1, 1)","(0, 0)","(0, 0)","(0, 0)","(1, 1)","(0, 0)"
empty,252,9.913150309857086,0.3589634795009345,0.0,none_d,False,,,3.858109799970407,True,"[0.3589634795009345, 0.3589634795009345, 0.3589634795009345]",True,True,lighter,,0.6001609999802895,up,down,"(0, 0)","(0, 0)","(1, 1)","(0, 0)","(0, 0)","(0, 0)","(1, 1)","(0, 0)"
empty,253,9.47160885458665,-0.2714746094043746,0.335,none_r,True,3.576565399998799,left,3.8430571000208147,True,"[0.0635253905956254, 0.0635253905956254, 0.0635253905956254]",False,False,,False,,left,up,"(0, 1)","(1, 0)","(0, 0)","(0, 0)","(0, 1)","(1, 0)","(0, 0)","(0, 0)"
interactor,254,9.76738321954357,0.3886931252449154,0.0,45_top_u,True,3.5743946000002325,,3.841814699990209,True,"[0.3886931252449154, 0.3886931252449154, 0.3886931252449154]",False,True,,False,,down,left,"(1, 0)","(0, 0)","(0, 0)","(0, 1)","(0, 0)","(0, 0)","(0, 0)","(1, 1)"
interactor,255,9.73495135194292,-0.02564360256179668,0.0,45_bottom_d,True,3.574928300047759,,3.842361700022593,True,"[-0.02564360256179668, -0.02564360256179668, -0.02564360256179668]",False,True,,False,,up,right,"(0, 0)","(0, 1)","(1, 0)","(0, 0)","(0, 0)","(1, 1)","(0, 0)","(0, 0)"
empty,256,9.360878450757733,0.4171652422275619,0.335,none_d,True,3.5756885999580845,right,3.8418647999642417,True,"[0.752165242227562, 0.752165242227562, 0.752165242227562]",False,False,lighter,True,0.7846008000196889,up,left,"(0, 0)","(0, 0)","(1, 0)","(0, 1)","(0, 0)","(0, 0)","(1, 0)","(0, 1)"
interactor,257,9.754441245933288,0.2268387162638003,-0.168,135_top_l,True,3.576630700030364,,3.8429555000038818,True,"[0.0588387162638003, 0.0588387162638003, 0.0588387162638003]",False,True,,False,,right,down,"(0, 0)","(0, 0)","(0, 1)","(1, 0)","(0, 0)","(0, 0)","(1, 1)","(0, 0)"
interactor,258,9.781462968054033,0.31911170170676195,0.335,135_top_u,False,,,3.857552499976009,True,"[0.6541117017067619, 0.6541117017067619, 0.6541117017067619]",True,False,,False,,down,up,"(1, 1)","(0, 0)","(0, 0)","(0, 0)","(0, 1)","(1, 0)","(0, 0)","(0, 0)"
interactor,259,9.407697283773494,0.183909472560652,0.168,135_top_u,True,3.576351900002919,,3.841808099998161,True,"[0.35190947256065197, 0.35190947256065197, 0.35190947256065197]",False,True,,False,,down,right,"(1, 0)","(0, 1)","(0, 0)","(0, 0)","(0, 0)","(1, 1)","(0, 0)","(0, 0)"
interactor,260,9.377080308165617,0.25501062376107014,0.168,45_bottom_l,True,3.575450500007719,,3.842231799964793,True,"[0.4230106237610701, 0.4230106237610701, 0.4230106237610701]",False,True,,False,,right,up,"(0, 1)","(0, 0)","(0, 0)","(1, 0)","(1, 1)","(0, 0)","(0, 0)","(0, 0)"
empty,261,9.468099606810988,-0.03243319073483608,0.335,none_d,True,3.5745861000032164,left,3.840756799967494,True,"[0.30256680926516394, 0.30256680926516394, 0.30256680926516394]",False,False,lighter,True,0.48441890004323795,up,right,"(0, 0)","(0, 1)","(1, 0)","(0, 0)","(0, 0)","(0, 1)","(1, 0)","(0, 0)"
empty,262,9.760292226825303,-0.04617514295547831,-0.168,none_d,True,3.576405900006648,left,3.8417230999912135,True,"[-0.21417514295547832, -0.21417514295547832, -0.21417514295547832]",False,False,darker,True,0.8504219999886118,up,right,"(0, 0)","(0, 1)","(1, 0)","(0, 0)","(0, 0)","(0, 1)","(1, 0)","(0, 0)"
empty,263,9.1434401316274,0.2855254066619229,-0.335,none_r,False,,,3.85798580001574,True,"[-0.04947459333807713, -0.04947459333807713, -0.04947459333807713]",True,True,,False,,left,right,"(0, 0)","(1, 1)","(0, 0)","(0, 0)","(0, 0)","(1, 1)","(0, 0)","(0, 0)"
interactor,264,9.026563616101479,0.23621646982949754,-0.168,45_top_r,True,3.5736797000281513,,3.839173300017137,True,"[0.06821646982949753, 0.06821646982949753, 0.06821646982949753]",False,True,,False,,left,down,"(0, 0)","(1, 0)","(0, 1)","(0, 0)","(0, 0)","(0, 0)","(1, 1)","(0, 0)"
empty,265,9.831910324446875,0.469948336927672,0.168,none_d,False,,,3.85861269995803,True,"[0.637948336927672, 0.637948336927672, 0.637948336927672]",True,True,lighter,True,0.7010803000302985,up,down,"(0, 0)","(0, 0)","(1, 1)","(0, 0)","(0, 0)","(0, 0)","(1, 1)","(0, 0)"
empty,266,9.825081164144047,0.36939064331320054,0.168,none_l,True,3.575009999971371,left,3.8577447999850847,True,"[0.5373906433132005, 0.5373906433132005, 0.5373906433132005]",False,False,lighter,True,0.6669499999843538,right,down,"(0, 0)","(0, 0)","(0, 1)","(1, 0)","(0, 0)","(0, 0)","(0, 1)","(1, 0)"
interactor,267,9.537489892186317,0.044285615338153395,0.0,135_top_l,True,3.5745218999800272,,3.8428964000195265,True,"[0.044285615338153395, 0.044285615338153395, 0.044285615338153395]",False,True,,False,,right,down,"(0, 0)","(0, 0)","(0, 1)","(1, 0)","(0, 0)","(0, 0)","(1, 1)","(0, 0)"
interactor,268,9.777965662610235,-0.15148712803501638,0.335,135_top_u,False,,,3.857619899965357,True,"[0.18351287196498364, 0.18351287196498364, 0.18351287196498364]",True,False,darker,False,0.6000181999988854,down,up,"(1, 1)","(0, 0)","(0, 0)","(0, 0)","(0, 1)","(1, 0)","(0, 0)","(0, 0)"
interactor,269,9.573054180092981,0.0645223287444032,0.0,45_top_u,False,,,3.859241899976041,True,"[0.0645223287444032, 0.0645223287444032, 0.0645223287444032]",True,False,space,,,down,up,"(1, 1)","(0, 0)","(0, 0)","(0, 0)","(0, 1)","(0, 0)","(0, 0)","(1, 0)"
empty,270,9.461622195003486,0.31505285753258583,0.335,none_d,False,,,3.8585904999636114,True,"[0.6500528575325859, 0.6500528575325859, 0.6500528575325859]",True,True,lighter,True,0.7492775000282563,up,down,"(0, 0)","(0, 0)","(1, 1)","(0, 0)","(0, 0)","(0, 0)","(1, 1)","(0, 0)"
interactor,271,9.602492301084023,-0.029777036505740317,0.168,135_top_u,True,3.575267400010489,,3.841537500033155,True,"[0.1382229634942597, 0.1382229634942597, 0.1382229634942597]",False,True,lighter,True,0.7340040999697521,down,right,"(1, 0)","(0, 1)","(0, 0)","(0, 0)","(0, 0)","(1, 1)","(0, 0)","(0, 0)"
empty,272,9.348988884603617,0.3143831220316017,-0.335,none_r,True,3.576755799993407,right,3.842178300023079,True,"[-0.02061687796839834, -0.02061687796839834, -0.02061687796839834]",False,False,,False,,left,down,"(0, 0)","(1, 0)","(0, 1)","(0, 0)","(0, 0)","(1, 0)","(0, 1)","(0, 0)"
interactor,273,8.836387080983728,0.025724885903218628,0.335,45_top_r,True,3.5750353999901563,,3.8413486999925226,True,"[0.36072488590321866, 0.36072488590321866, 0.36072488590321866]",False,True,lighter,True,0.6345002999878488,left,down,"(0, 0)","(1, 0)","(0, 1)","(0, 0)","(0, 0)","(0, 0)","(1, 1)","(0, 0)"
interactor,274,9.488866245236782,0.3068105561659576,0.168,45_top_u,False,,,3.8574502000119537,True,"[0.4748105561659576, 0.4748105561659576, 0.4748105561659576]",True,False,,False,,down,up,"(1, 1)","(0, 0)","(0, 0)","(0, 0)","(0, 1)","(0, 0)","(0, 0)","(1, 0)"
empty,275,9.701703527716564,0.45181263563556995,-0.335,none_u,True,3.5758802000200376,right,3.8411297000129707,True,"[0.11681263563556993, 0.11681263563556993, 0.11681263563556993]",False,False,,False,,down,right,"(1, 0)","(0, 1)","(0, 0)","(0, 0)","(1, 0)","(0, 1)","(0, 0)","(0, 0)"
empty,276,9.343372957723238,0.17031065261372846,0.168,none_l,False,,,3.8572824000148103,True,"[0.3383106526137285, 0.3383106526137285, 0.3383106526137285]",True,True,,False,,right,left,"(0, 0)","(0, 0)","(0, 0)","(1, 1)","(0, 0)","(0, 0)","(0, 0)","(1, 1)"
empty,277,9.49906559229541,0.09019436141989899,0.335,none_u,False,,,3.8586764000356197,True,"[0.425194361419899, 0.425194361419899, 0.425194361419899]",True,True,,False,,down,up,"(1, 1)","(0, 0)","(0, 0)","(0, 0)","(1, 1)","(0, 0)","(0, 0)","(0, 0)"
interactor,278,9.610988476429222,0.19921139768556365,0.168,45_bottom_l,True,3.5742305999738164,,3.8405219999840483,True,"[0.36721139768556366, 0.36721139768556366, 0.36721139768556366]",False,True,,False,,right,up,"(0, 1)","(0, 0)","(0, 0)","(1, 0)","(1, 1)","(0, 0)","(0, 0)","(0, 0)"
empty,279,9.604502821813472,-0.11357658406089757,-0.168,none_r,False,,,3.8595883999951184,True,"[-0.2815765840608976, -0.2815765840608976, -0.2815765840608976]",True,True,,False,,left,right,"(0, 0)","(1, 1)","(0, 0)","(0, 0)","(0, 0)","(1, 1)","(0, 0)","(0, 0)"
interactor,280,9.833014062192676,0.2469454688854902,-0.335,45_bottom_d,False,,,3.8582063000067137,True,"[-0.08805453111450981, -0.08805453111450981, -0.08805453111450981]",True,False,,False,,up,down,"(0, 0)","(0, 0)","(1, 1)","(0, 0)","(0, 0)","(1, 0)","(0, 1)","(0, 0)"
interactor,281,9.534226399156543,-0.1328723748010224,0.0,135_bottom_r,False,,,3.85884849994909,True,"[-0.1328723748010224, -0.1328723748010224, -0.1328723748010224]",True,False,,False,,left,right,"(0, 0)","(1, 1)","(0, 0)","(0, 0)","(1, 0)","(0, 1)","(0, 0)","(0, 0)"
interactor,282,9.396626074113113,0.17127577652317438,-0.168,45_bottom_l,False,,,3.8565656000282615,True,"[0.003275776523174373, 0.003275776523174373, 0.003275776523174373]",True,False,,False,,right,left,"(0, 0)","(0, 0)","(0, 0)","(1, 1)","(1, 0)","(0, 0)","(0, 0)","(0, 1)"
interactor,283,9.694655153956452,-0.26813044538552555,-0.335,135_top_u,True,3.575730200042017,,3.84124590002466,True,"[-0.6031304453855255, -0.6031304453855255, -0.6031304453855255]",False,True,darker,True,1.0848776000202633,down,right,"(1, 0)","(0, 1)","(0, 0)","(0, 0)","(0, 0)","(1, 1)","(0, 0)","(0, 0)"
interactor,284,9.217153289306864,0.06777212229931097,-0.335,135_top_u,True,3.572981200006325,,3.841689500026405,True,"[-0.26722787770068906, -0.26722787770068906, -0.26722787770068906]",False,True,,False,,down,right,"(1, 0)","(0, 1)","(0, 0)","(0, 0)","(0, 0)","(1, 1)","(0, 0)","(0, 0)"
interactor,285,9.511588913553386,0.22279462921482407,-0.168,135_bottom_d,False,,,3.8585536000318825,True,"[0.05479462921482406, 0.05479462921482406, 0.05479462921482406]",True,False,,False,,up,down,"(0, 0)","(0, 0)","(1, 1)","(0, 0)","(0, 0)","(0, 0)","(0, 1)","(1, 0)"
empty,286,9.631112530834907,0.1404552077275742,-0.335,none_r,False,,,3.8580707000219263,True,"[-0.19454479227242583, -0.19454479227242583, -0.19454479227242583]",True,True,darker,True,1.4664998999796808,left,right,"(0, 0)","(1, 1)","(0, 0)","(0, 0)","(0, 0)","(1, 1)","(0, 0)","(0, 0)"
interactor,287,9.49979296589677,-0.1599792330545826,-0.335,135_top_u,False,,,3.8597910000244156,True,"[-0.4949792330545826, -0.4949792330545826, -0.4949792330545826]",True,False,darker,True,0.6334742999752052,down,up,"(1, 1)","(0, 0)","(0, 0)","(0, 0)","(0, 1)","(1, 0)","(0, 0)","(0, 0)"
interactor,288,9.308064499498398,0.47429552806217246,0.335,135_top_l,True,3.5755369000253268,,3.8408866000245325,True,"[0.8092955280621725, 0.8092955280621725, 0.8092955280621725]",False,True,lighter,True,0.7006288000266068,right,down,"(0, 0)","(0, 0)","(0, 1)","(1, 0)","(0, 0)","(0, 0)","(1, 1)","(0, 0)"
interactor,289,9.542421811443027,0.4464001627291788,0.168,45_top_u,True,3.5758375999866985,,3.8432858999585733,True,"[0.6144001627291789, 0.6144001627291789, 0.6144001627291789]",False,True,,False,,down,left,"(1, 0)","(0, 0)","(0, 0)","(0, 1)","(0, 0)","(0, 0)","(0, 0)","(1, 1)"
empty,290,9.313677919678774,0.2655513377785906,-0.335,none_d,True,3.5735638000187464,left,3.841650300018955,True,"[-0.06944866222140944, -0.06944866222140944, -0.06944866222140944]",False,False,darker,True,0.7660352999810129,up,right,"(0, 0)","(0, 1)","(1, 0)","(0, 0)","(0, 0)","(0, 1)","(1, 0)","(0, 0)"
interactor,291,9.462838874787005,0.2038809667485957,-0.335,135_bottom_d,True,3.575527200009674,,3.8431592999841087,True,"[-0.1311190332514043, -0.1311190332514043, -0.1311190332514043]",False,True,darker,True,0.8502001000451855,up,left,"(0, 0)","(0, 0)","(1, 0)","(0, 1)","(0, 0)","(0, 0)","(0, 0)","(1, 1)"
interactor,292,9.356870639196107,0.0977976866641983,0.0,45_top_r,False,,,3.8585554999881424,True,"[0.0977976866641983, 0.0977976866641983, 0.0977976866641983]",True,False,,False,,left,right,"(0, 0)","(1, 1)","(0, 0)","(0, 0)","(0, 0)","(0, 1)","(1, 0)","(0, 0)"
empty,293,9.66402548357884,0.05319015370438861,0.0,none_l,False,,,3.8579228000016883,True,"[0.05319015370438861, 0.05319015370438861, 0.05319015370438861]",True,True,darker,,0.8679564000340179,right,left,"(0, 0)","(0, 0)","(0, 0)","(1, 1)","(0, 0)","(0, 0)","(0, 0)","(1, 1)"
empty,294,9.634798378797107,-0.01080043812349843,-0.335,none_u,True,3.574006900016684,right,3.8419730000314303,True,"[-0.3458004381234985, -0.3458004381234985, -0.3458004381234985]",False,False,darker,True,0.8153104999801144,down,right,"(1, 0)","(0, 1)","(0, 0)","(0, 0)","(1, 0)","(0, 1)","(0, 0)","(0, 0)"
interactor,295,9.584491959101147,0.19171375717117922,0.168,135_top_l,True,3.575318499992136,,3.8424863999825902,True,"[0.35971375717117926, 0.35971375717117926, 0.35971375717117926]",False,True,x,,,right,down,"(0, 0)","(0, 0)","(0, 1)","(1, 0)","(0, 0)","(0, 0)","(1, 1)","(0, 0)"
interactor,296,9.541910187972077,0.3137207247292375,-0.168,45_top_u,False,,,3.8572574999998324,True,"[0.1457207247292375, 0.1457207247292375, 0.1457207247292375]",True,False,,False,,down,up,"(1, 1)","(0, 0)","(0, 0)","(0, 0)","(0, 1)","(0, 0)","(0, 0)","(1, 0)"
empty,297,9.521128464678354,0.5122996211359235,-0.168,none_u,False,,,3.859471299976576,True,"[0.3442996211359235, 0.3442996211359235, 0.3442996211359235]",True,True,,False,,down,up,"(1, 1)","(0, 0)","(0, 0)","(0, 0)","(1, 1)","(0, 0)","(0, 0)","(0, 0)"
interactor,298,9.270719827804733,0.22401339959255456,0.168,45_top_r,True,3.573598699993454,,3.8421369999996386,True,"[0.39201339959255455, 0.39201339959255455, 0.39201339959255455]",False,True,,False,,left,down,"(0, 0)","(1, 0)","(0, 1)","(0, 0)","(0, 0)","(0, 0)","(1, 1)","(0, 0)"
interactor,299,9.59150587077463,-0.03025384810230486,0.0,135_top_l,True,3.5740251999814063,,3.840345599979628,True,"[-0.03025384810230486, -0.03025384810230486, -0.03025384810230486]",False,True,lighter,,1.1176030000206083,right,down,"(0, 0)","(0, 0)","(0, 1)","(1, 0)","(0, 0)","(0, 0)","(1, 1)","(0, 0)"
interactor,300,9.226358922200227,-0.06844505743624604,-0.335,135_top_l,True,3.5746534999925643,,3.8408161000115797,True,"[-0.40344505743624604, -0.40344505743624604, -0.40344505743624604]",False,True,darker,True,0.8832046999596059,right,down,"(0, 0)","(0, 0)","(0, 1)","(1, 0)","(0, 0)","(0, 0)","(1, 1)","(0, 0)"
interactor,301,9.706273210890345,0.24303110429040417,0.0,135_bottom_r,True,3.575878700008616,,3.841324200038798,True,"[0.24303110429040417, 0.24303110429040417, 0.24303110429040417]",False,True,,False,,left,up,"(0, 1)","(1, 0)","(0, 0)","(0, 0)","(1, 1)","(0, 0)","(0, 0)","(0, 0)"
empty,302,9.486666430680234,0.3607459537726405,0.168,none_d,False,,,3.8573852000408806,True,"[0.5287459537726406, 0.5287459537726406, 0.5287459537726406]",True,True,lighter,True,0.7493384999688715,up,down,"(0, 0)","(0, 0)","(1, 1)","(0, 0)","(0, 0)","(0, 0)","(1, 1)","(0, 0)"
interactor,303,9.035004813972987,0.0820282806455184,0.0,45_bottom_d,False,,,3.857928300043568,True,"[0.0820282806455184, 0.0820282806455184, 0.0820282806455184]",True,False,,False,,up,down,"(0, 0)","(0, 0)","(1, 1)","(0, 0)","(0, 0)","(1, 0)","(0, 1)","(0, 0)"
empty,304,9.246862091468623,-0.062369664793178015,-0.335,none_l,False,,,3.8583652999950573,True,"[-0.39736966479317803, -0.39736966479317803, -0.39736966479317803]",True,True,darker,True,0.9521414000191726,right,left,"(0, 0)","(0, 0)","(0, 0)","(1, 1)","(0, 0)","(0, 0)","(0, 0)","(1, 1)"
empty,305,9.59418092255769,0.36796674428483556,-0.168,none_l,True,3.574068400019314,right,3.8413007999770343,True,"[0.19996674428483555, 0.19996674428483555, 0.19996674428483555]",False,False,darker,True,0.883923000015784,right,up,"(0, 1)","(0, 0)","(0, 0)","(1, 0)","(0, 1)","(0, 0)","(0, 0)","(1, 0)"
interactor,306,9.100064798947804,0.22438048996275806,-0.335,135_top_l,True,3.5757367000333034,,3.8420319000142626,True,"[-0.11061951003724196, -0.11061951003724196, -0.11061951003724196]",False,True,,False,,right,down,"(0, 0)","(0, 0)","(0, 1)","(1, 0)","(0, 0)","(0, 0)","(1, 1)","(0, 0)"
interactor,307,9.736680610302699,0.17206037287411646,0.168,45_top_r,True,3.5754516000160947,,3.8411548000294715,True,"[0.3400603728741165, 0.3400603728741165, 0.3400603728741165]",False,True,,False,,left,down,"(0, 0)","(1, 0)","(0, 1)","(0, 0)","(0, 0)","(0, 0)","(1, 1)","(0, 0)"
interactor,308,9.418433723630024,0.046296685915375294,0.168,135_bottom_d,False,,,3.8583498999942094,True,"[0.21429668591537532, 0.21429668591537532, 0.21429668591537532]",True,False,lighter,True,1.2004377999692224,up,down,"(0, 0)","(0, 0)","(1, 1)","(0, 0)","(0, 0)","(0, 0)","(0, 1)","(1, 0)"
interactor,309,9.458575857978373,-0.1672588069588313,0.335,45_top_u,False,,,3.8581345999846235,True,"[0.16774119304116872, 0.16774119304116872, 0.16774119304116872]",True,False,,False,,down,up,"(1, 1)","(0, 0)","(0, 0)","(0, 0)","(0, 1)","(0, 0)","(0, 0)","(1, 0)"
interactor,310,9.35934516058899,0.3180258032765646,0.0,135_bottom_d,False,,,3.8567552999593318,True,"[0.3180258032765646, 0.3180258032765646, 0.3180258032765646]",True,False,,False,,up,down,"(0, 0)","(0, 0)","(1, 1)","(0, 0)","(0, 0)","(0, 0)","(0, 1)","(1, 0)"
empty,311,9.42184894710747,0.24848203719833417,-0.335,none_u,True,3.575591800035909,left,3.8427739000180736,True,"[-0.08651796280166585, -0.08651796280166585, -0.08651796280166585]",False,False,darker,True,0.8999887999962084,down,left,"(1, 0)","(0, 0)","(0, 0)","(0, 1)","(1, 0)","(0, 0)","(0, 0)","(0, 1)"
interactor,312,9.54761985058999,0.2875532757650803,0.335,45_top_r,False,,,3.857747800007928,True,"[0.6225532757650802, 0.6225532757650802, 0.6225532757650802]",True,False,lighter,True,0.8513132000225596,left,right,"(0, 0)","(1, 1)","(0, 0)","(0, 0)","(0, 0)","(0, 1)","(1, 0)","(0, 0)"
empty,313,9.94699474168274,-0.06273687201711989,0.168,none_r,True,3.576091599999927,right,3.8593576999846846,True,"[0.10526312798288012, 0.10526312798288012, 0.10526312798288012]",False,False,,False,,left,down,"(0, 0)","(1, 0)","(0, 1)","(0, 0)","(0, 0)","(1, 0)","(0, 1)","(0, 0)"
empty,314,9.518157416136203,-0.0010441287274865763,0.168,none_l,False,,,3.8571250999812037,True,"[0.16695587127251343, 0.16695587127251343, 0.16695587127251343]",True,True,,False,,right,left,"(0, 0)","(0, 0)","(0, 0)","(1, 1)","(0, 0)","(0, 0)","(0, 0)","(1, 1)"
empty,315,9.525644842038396,0.028146840267558093,-0.335,none_r,False,,,3.8578870000201277,True,"[-0.3068531597324419, -0.3068531597324419, -0.3068531597324419]",True,True,darker,True,0.6673357999534346,left,right,"(0, 0)","(1, 1)","(0, 0)","(0, 0)","(0, 0)","(1, 1)","(0, 0)","(0, 0)"
interactor,316,9.743466187319738,0.35243536928401265,-0.335,135_top_l,False,,,3.8573219999670982,True,"[0.017435369284012625, 0.017435369284012625, 0.017435369284012625]",True,False,darker,True,1.1676934000570327,right,left,"(0, 0)","(0, 0)","(0, 0)","(1, 1)","(0, 0)","(0, 0)","(1, 0)","(0, 1)"
interactor,317,9.476247535953398,0.2271650583548842,0.335,45_bottom_l,False,,,3.8574558999971487,True,"[0.5621650583548843, 0.5621650583548843, 0.5621650583548843]",True,False,,False,,right,left,"(0, 0)","(0, 0)","(0, 0)","(1, 1)","(1, 0)","(0, 0)","(0, 0)","(0, 1)"
empty,318,9.423670944677408,0.24824545994765995,-0.335,none_u,False,,,3.8588107000105083,True,"[-0.08675454005234007, -0.08675454005234007, -0.08675454005234007]",True,True,darker,True,0.6833572000032291,down,up,"(1, 1)","(0, 0)","(0, 0)","(0, 0)","(1, 1)","(0, 0)","(0, 0)","(0, 0)"
empty,319,9.770278330094383,0.06690717576977798,0.0,none_u,True,3.5743816000176594,left,3.8424374000169337,True,"[0.06690717576977798, 0.06690717576977798, 0.06690717576977798]",False,False,darker,,0.7332178999786265,down,left,"(1, 0)","(0, 0)","(0, 0)","(0, 1)","(1, 0)","(0, 0)","(0, 0)","(0, 1)"
interactor,320,9.748930300272487,-0.3497765090925775,0.0,135_top_l,False,,,3.8576750999782234,True,"[-0.3497765090925775, -0.3497765090925775, -0.3497765090925775]",True,False,,False,,right,left,"(0, 0)","(0, 0)","(0, 0)","(1, 1)","(0, 0)","(0, 0)","(1, 0)","(0, 1)"
empty,321,9.46645288044599,0.27727870855697134,0.0,none_u,False,,,3.859611899999436,True,"[0.27727870855697134, 0.27727870855697134, 0.27727870855697134]",True,True,,False,,down,up,"(1, 1)","(0, 0)","(0, 0)","(0, 0)","(1, 1)","(0, 0)","(0, 0)","(0, 0)"
empty,322,9.509562071525794,0.12529686257964168,0.168,none_d,True,3.5732361000264063,left,3.8401305000297725,True,"[0.2932968625796417, 0.2932968625796417, 0.2932968625796417]",False,False,lighter,True,1.0181820999714546,up,right,"(0, 0)","(0, 1)","(1, 0)","(0, 0)","(0, 0)","(0, 1)","(1, 0)","(0, 0)"
empty,323,9.024633189167494,0.12116770088391252,0.335,none_r,True,3.575364999996964,right,3.84251420001965,True,"[0.45616770088391256, 0.45616770088391256, 0.45616770088391256]",False,False,lighter,True,0.8006101999781094,left,down,"(0, 0)","(1, 0)","(0, 1)","(0, 0)","(0, 0)","(1, 0)","(0, 1)","(0, 0)"
interactor,324,9.719500950554755,0.5821173469636729,-0.335,45_top_r,True,3.5745657000225037,,3.8410564999794587,True,"[0.24711734696367288, 0.24711734696367288, 0.24711734696367288]",False,True,,False,,left,down,"(0, 0)","(1, 0)","(0, 1)","(0, 0)","(0, 0)","(0, 0)","(1, 1)","(0, 0)"
interactor,325,8.906336871287197,0.19164629599211103,-0.335,45_top_u,False,,,3.8578508000355214,True,"[-0.143353704007889, -0.143353704007889, -0.143353704007889]",True,False,darker,True,0.8341397999902256,down,up,"(1, 1)","(0, 0)","(0, 0)","(0, 0)","(0, 1)","(0, 0)","(0, 0)","(1, 0)"
interactor,326,9.94412633250795,0.030201234717295078,0.0,45_top_r,False,,,3.8573553999885917,True,"[0.030201234717295078, 0.030201234717295078, 0.030201234717295078]",True,False,,False,,left,right,"(0, 0)","(1, 1)","(0, 0)","(0, 0)","(0, 0)","(0, 1)","(1, 0)","(0, 0)"
empty,327,9.434382309443178,0.1921918091545006,0.0,none_u,True,3.5769020000007004,left,3.843225800024811,True,"[0.1921918091545006, 0.1921918091545006, 0.1921918091545006]",False,False,space,,,down,left,"(1, 0)","(0, 0)","(0, 0)","(0, 1)","(1, 0)","(0, 0)","(0, 0)","(0, 1)"
interactor,328,9.092522319792716,-0.0070245406327794635,-0.335,135_bottom_r,False,,,3.8575400999980047,True,"[-0.3420245406327795, -0.3420245406327795, -0.3420245406327795]",True,False,lighter,False,0.6164051999803632,left,right,"(0, 0)","(1, 1)","(0, 0)","(0, 0)","(1, 0)","(0, 1)","(0, 0)","(0, 0)"
interactor,329,9.722691644958871,0.1149218020202494,0.335,135_top_l,False,,,3.8580871999729425,True,"[0.44992180202024945, 0.44992180202024945, 0.44992180202024945]",True,False,darker,False,0.9498148999991827,right,left,"(0, 0)","(0, 0)","(0, 0)","(1, 1)","(0, 0)","(0, 0)","(1, 0)","(0, 1)"
empty,330,10.016192442656067,0.2202338255228447,0.335,none_d,False,,,3.857104700000491,True,"[0.5552338255228447, 0.5552338255228447, 0.5552338255228447]",True,True,lighter,True,0.5844968999736011,up,down,"(0, 0)","(0, 0)","(1, 1)","(0, 0)","(0, 0)","(0, 0)","(1, 1)","(0, 0)"
interactor,331,9.519675573375851,0.09558623537659541,0.168,135_bottom_r,False,,,3.8583528000162914,True,"[0.2635862353765954, 0.2635862353765954, 0.2635862353765954]",True,False,lighter,True,0.6342932999832556,left,right,"(0, 0)","(1, 1)","(0, 0)","(0, 0)","(1, 0)","(0, 1)","(0, 0)","(0, 0)"
interactor,332,9.701513336534864,0.019314170791705165,-0.168,135_bottom_r,False,,,3.857685399998445,True,"[-0.14868582920829485, -0.14868582920829485, -0.14868582920829485]",True,False,,False,,left,right,"(0, 0)","(1, 1)","(0, 0)","(0, 0)","(1, 0)","(0, 1)","(0, 0)","(0, 0)"
empty,333,9.451058959202348,0.1678568041285991,0.168,none_r,False,,,3.857003799988888,True,"[0.3358568041285991, 0.3358568041285991, 0.3358568041285991]",True,True,,False,,left,right,"(0, 0)","(1, 1)","(0, 0)","(0, 0)","(0, 0)","(1, 1)","(0, 0)","(0, 0)"
empty,334,10.026046792707792,-0.010527801340273146,0.335,none_u,True,3.5751283999998122,right,3.8564923999947496,True,"[0.3244721986597269, 0.3244721986597269, 0.3244721986597269]",False,False,lighter,True,0.717834800016135,down,right,"(1, 0)","(0, 1)","(0, 0)","(0, 0)","(1, 0)","(0, 1)","(0, 0)","(0, 0)"
empty,335,9.312018397043323,0.39338481740835307,-0.335,none_l,True,3.5761127999867313,right,3.8411065999534912,True,"[0.05838481740835305, 0.05838481740835305, 0.05838481740835305]",False,False,darker,True,0.7019349000183865,right,up,"(0, 1)","(0, 0)","(0, 0)","(1, 0)","(0, 1)","(0, 0)","(0, 0)","(1, 0)"
interactor,336,9.242688669493868,0.03495490438204975,-0.168,135_top_u,True,3.5748726000310853,,3.8411846000235528,True,"[-0.13304509561795025, -0.13304509561795025, -0.13304509561795025]",False,True,darker,True,1.2001091999700293,down,right,"(1, 0)","(0, 1)","(0, 0)","(0, 0)","(0, 0)","(1, 1)","(0, 0)","(0, 0)"
empty,337,9.237670141202283,0.2842332517070171,-0.168,none_l,False,,,3.859156900027301,True,"[0.11623325170701707, 0.11623325170701707, 0.11623325170701707]",True,True,,False,,right,left,"(0, 0)","(0, 0)","(0, 0)","(1, 1)","(0, 0)","(0, 0)","(0, 0)","(1, 1)"
interactor,338,9.63033573751576,-0.034539695585342534,0.168,45_top_u,False,,,3.85830329998862,True,"[0.13346030441465748, 0.13346030441465748, 0.13346030441465748]",True,False,,False,,down,up,"(1, 1)","(0, 0)","(0, 0)","(0, 0)","(0, 1)","(0, 0)","(0, 0)","(1, 0)"
empty,339,9.511530114217694,0.17950969343644207,-0.168,none_l,True,3.575988899974618,right,3.8411442999495193,True,"[0.011509693436442064, 0.011509693436442064, 0.011509693436442064]",False,False,darker,True,0.6343006000388414,right,up,"(0, 1)","(0, 0)","(0, 0)","(1, 0)","(0, 1)","(0, 0)","(0, 0)","(1, 0)"
empty,340,9.204425771638181,0.36020372575743764,0.335,none_u,True,3.574919000035152,left,3.842211000039242,True,"[0.6952037257574377, 0.6952037257574377, 0.6952037257574377]",False,False,lighter,True,1.2330224000033922,down,left,"(1, 0)","(0, 0)","(0, 0)","(0, 1)","(1, 0)","(0, 0)","(0, 0)","(0, 1)"
empty,341,10.079434010134948,0.15077740547820778,-0.335,none_l,False,,,3.857004899997264,True,"[-0.18422259452179224, -0.18422259452179224, -0.18422259452179224]",True,True,darker,True,0.8003243000130169,right,left,"(0, 0)","(0, 0)","(0, 0)","(1, 1)","(0, 0)","(0, 0)","(0, 0)","(1, 1)"
interactor,342,9.663243232792556,0.12351960787615213,-0.168,45_top_u,True,3.5733168000006117,,3.8397275999886915,True,"[-0.044480392123847884, -0.044480392123847884, -0.044480392123847884]",False,True,,False,,down,left,"(1, 0)","(0, 0)","(0, 0)","(0, 1)","(0, 0)","(0, 0)","(0, 0)","(1, 1)"
interactor,343,8.942960389472248,0.0006437389988979969,-0.168,135_bottom_r,True,3.574728299980052,,3.8411718999850564,True,"[-0.167356261001102, -0.167356261001102, -0.167356261001102]",False,True,darker,True,0.6325156000093557,left,up,"(0, 1)","(1, 0)","(0, 0)","(0, 0)","(1, 1)","(0, 0)","(0, 0)","(0, 0)"
interactor,344,9.222431753625866,0.1640413344888083,-0.168,45_top_r,False,,,3.8580313000129536,True,"[-0.0039586655111917, -0.0039586655111917, -0.0039586655111917]",True,False,,False,,left,right,"(0, 0)","(1, 1)","(0, 0)","(0, 0)","(0, 0)","(0, 1)","(1, 0)","(0, 0)"
interactor,345,9.439346079371644,0.26156652835801303,0.335,45_bottom_d,True,3.5739893999998458,,3.8414117000065744,True,"[0.596566528358013, 0.596566528358013, 0.596566528358013]",False,True,lighter,True,0.7839287000242621,up,right,"(0, 0)","(0, 1)","(1, 0)","(0, 0)","(0, 0)","(1, 1)","(0, 0)","(0, 0)"
empty,346,9.600625791248182,0.3028337738028668,-0.335,none_l,False,,,3.857006400008686,True,"[-0.03216622619713322, -0.03216622619713322, -0.03216622619713322]",True,True,darker,True,1.0342603999888524,right,left,"(0, 0)","(0, 0)","(0, 0)","(1, 1)","(0, 0)","(0, 0)","(0, 0)","(1, 1)"
interactor,347,9.8497570743732,0.32360475295286717,0.0,135_bottom_r,False,,,3.85722830001032,True,"[0.32360475295286717, 0.32360475295286717, 0.32360475295286717]",True,False,lighter,,0.5840131999575533,left,right,"(0, 0)","(1, 1)","(0, 0)","(0, 0)","(1, 0)","(0, 1)","(0, 0)","(0, 0)"
