,trial_type,trial,ball_speed,ball_start_color,ball_color_change,interactor,bounce,bounce_moment,random_bounce_direction,target_onset,ball_change,target_color,abs_congruent,sim_congruent,response,accuracy,rt,start_pos,end_pos,abs_rfup,abs_rfright,abs_rfdown,abs_rfleft,sim_rfup,sim_rfright,sim_rfdown,sim_rfleft
0,interactor,1,9.910874057595427,-0.1593390460890338,0.0,45_top_u,True,3.6775142999831587,,3.960932700021658,True,"[-0.1593390460890338, -0.1593390460890338, -0.1593390460890338]",False,True,lighter,,0.8322260999702848,down,left,"(1, 0)","(0, 0)","(0, 0)","(0, 1)","(0, 0)","(0, 0)","(0, 0)","(1, 1)"
1,interactor,2,9.861241468954352,0.03517041212482955,-0.335,45_top_u,True,3.575743400026113,,3.8585415999987163,True,"[-0.29982958787517044, -0.29982958787517044, -0.29982958787517044]",False,True,lighter,False,0.7332639999804087,down,left,"(1, 0)","(0, 0)","(0, 0)","(0, 1)","(0, 0)","(0, 0)","(0, 0)","(1, 1)"
2,interactor,3,9.468415016181224,0.25480445793555884,0.335,45_top_r,False,,,3.8576076999888755,True,"[0.5898044579355588, 0.5898044579355588, 0.5898044579355588]",True,False,lighter,True,0.6854940999764949,left,right,"(0, 0)","(1, 1)","(0, 0)","(0, 0)","(0, 0)","(0, 1)","(1, 0)","(0, 0)"
3,empty,4,10.009706954233328,0.2163001535842915,-0.335,none_r,True,3.573525400017388,left,3.8578567000222392,True,"[-0.11869984641570852, -0.11869984641570852, -0.11869984641570852]",False,False,darker,True,0.7168794999597594,left,up,"(0, 1)","(1, 0)","(0, 0)","(0, 0)","(0, 1)","(1, 0)","(0, 0)","(0, 0)"
4,empty,5,9.302470158904466,-0.07292425936774935,0.335,none_l,True,3.574312499957159,left,3.8422041999874637,True,"[0.2620757406322507, 0.2620757406322507, 0.2620757406322507]",False,False,darker,False,0.7498472000006586,right,down,"(0, 0)","(0, 0)","(0, 1)","(1, 0)","(0, 0)","(0, 0)","(0, 1)","(1, 0)"
5,empty,6,9.959527413191982,0.4884922553009341,-0.335,none_u,True,3.5746045000269078,left,3.8574649000074714,True,"[0.15349225530093408, 0.15349225530093408, 0.15349225530093408]",False,False,darker,True,0.8830961000057869,down,left,"(1, 0)","(0, 0)","(0, 0)","(0, 1)","(1, 0)","(0, 0)","(0, 0)","(0, 1)"
6,interactor,7,8.950627661514352,0.28475686806484224,0.0,45_top_u,False,,,3.8577363999793306,True,"[0.28475686806484224, 0.28475686806484224, 0.28475686806484224]",True,False,darker,,0.6993085999856703,down,up,"(1, 1)","(0, 0)","(0, 0)","(0, 0)","(0, 1)","(0, 0)","(0, 0)","(1, 0)"
7,interactor,8,9.601431491810876,0.32840634041196803,-0.335,45_bottom_d,False,,,3.857796900032554,True,"[-0.006593659588031986, -0.006593659588031986, -0.006593659588031986]",True,False,darker,True,0.6331149999750778,up,down,"(0, 0)","(0, 0)","(1, 1)","(0, 0)","(0, 0)","(1, 0)","(0, 1)","(0, 0)"
8,empty,9,9.556425916128738,0.13546805889124836,0.0,none_l,True,3.5760163000086322,right,3.843131200002972,True,"[0.13546805889124836, 0.13546805889124836, 0.13546805889124836]",False,False,lighter,,0.7166192000149749,right,up,"(0, 1)","(0, 0)","(0, 0)","(1, 0)","(0, 1)","(0, 0)","(0, 0)","(1, 0)"
9,interactor,10,9.432733973838095,0.27227034901304736,0.335,45_bottom_d,False,,,3.858794300002046,True,"[0.6072703490130473, 0.6072703490130473, 0.6072703490130473]",True,False,lighter,True,0.702017999952659,up,down,"(0, 0)","(0, 0)","(1, 1)","(0, 0)","(0, 0)","(1, 0)","(0, 1)","(0, 0)"
10,empty,11,9.921430225289736,0.3156003725342793,0.0,none_r,False,,,3.858727499959059,True,"[0.3156003725342793, 0.3156003725342793, 0.3156003725342793]",True,True,lighter,,0.48362450004788116,left,right,"(0, 0)","(1, 1)","(0, 0)","(0, 0)","(0, 0)","(1, 1)","(0, 0)","(0, 0)"
11,empty,12,9.017106595858468,0.3062779406835272,0.0,none_r,True,3.5748074000002816,left,3.8406443999847397,True,"[0.3062779406835272, 0.3062779406835272, 0.3062779406835272]",False,False,darker,,0.6503643000032753,left,up,"(0, 1)","(1, 0)","(0, 0)","(0, 0)","(0, 1)","(1, 0)","(0, 0)","(0, 0)"
12,interactor,13,9.4989324728364,-0.016051880168150373,-0.335,45_top_u,False,,,3.8587894999654964,True,"[-0.35105188016815037, -0.35105188016815037, -0.35105188016815037]",True,False,darker,True,0.44963640003697947,down,up,"(1, 1)","(0, 0)","(0, 0)","(0, 0)","(0, 1)","(0, 0)","(0, 0)","(1, 0)"
13,interactor,14,9.383422685324545,0.03893839752991357,0.0,45_bottom_d,True,3.5747286999830976,,3.842294199974276,True,"[0.03893839752991357, 0.03893839752991357, 0.03893839752991357]",False,True,lighter,,0.8001318000024185,up,right,"(0, 0)","(0, 1)","(1, 0)","(0, 0)","(0, 0)","(1, 1)","(0, 0)","(0, 0)"
14,empty,15,9.50243492186616,0.45466691294128714,-0.335,none_d,False,,,3.8558667000033893,True,"[0.11966691294128712, 0.11966691294128712, 0.11966691294128712]",True,True,lighter,False,0.768409900018014,up,down,"(0, 0)","(0, 0)","(1, 1)","(0, 0)","(0, 0)","(0, 0)","(1, 1)","(0, 0)"
15,interactor,16,9.696903431789902,0.2705843797010677,0.335,135_top_l,False,,,3.8578266999684274,True,"[0.6055843797010677, 0.6055843797010677, 0.6055843797010677]",True,False,lighter,True,0.6500821000081487,right,left,"(0, 0)","(0, 0)","(0, 0)","(1, 1)","(0, 0)","(0, 0)","(1, 0)","(0, 1)"
16,interactor,17,9.341241006155844,-0.20643833009361404,0.335,135_bottom_r,False,,,3.8585729000042193,True,"[0.12856166990638598, 0.12856166990638598, 0.12856166990638598]",True,False,lighter,True,0.534326599969063,left,right,"(0, 0)","(1, 1)","(0, 0)","(0, 0)","(1, 0)","(0, 1)","(0, 0)","(0, 0)"
17,interactor,18,9.407085277526923,0.2960685237765619,0.335,45_top_u,False,,,3.8583330000401475,True,"[0.6310685237765619, 0.6310685237765619, 0.6310685237765619]",True,False,lighter,True,0.982800199999474,down,up,"(1, 1)","(0, 0)","(0, 0)","(0, 0)","(0, 1)","(0, 0)","(0, 0)","(1, 0)"
18,empty,19,9.75176770798587,0.19822040098896784,-0.168,none_r,True,3.5737492999760434,right,3.839707399951294,True,"[0.030220400988967833, 0.030220400988967833, 0.030220400988967833]",False,False,darker,True,0.6353185000480153,left,down,"(0, 0)","(1, 0)","(0, 1)","(0, 0)","(0, 0)","(1, 0)","(0, 1)","(0, 0)"
19,empty,20,9.333353669372812,0.2412789344459158,-0.168,none_u,True,3.5738892999943346,right,3.8402092999895103,True,"[0.0732789344459158, 0.0732789344459158, 0.0732789344459158]",False,False,darker,True,0.5506673000054434,down,right,"(1, 0)","(0, 1)","(0, 0)","(0, 0)","(1, 0)","(0, 1)","(0, 0)","(0, 0)"
20,empty,21,9.918503865871253,0.039321431688911584,0.335,none_r,False,,,3.8581206999951974,True,"[0.37432143168891163, 0.37432143168891163, 0.37432143168891163]",True,True,darker,False,0.833033400005661,left,right,"(0, 0)","(1, 1)","(0, 0)","(0, 0)","(0, 0)","(1, 1)","(0, 0)","(0, 0)"
21,interactor,22,9.232233921497704,0.32101213704771026,-0.168,45_bottom_d,True,3.5730206999578513,,3.8404585999669507,True,"[0.15301213704771024, 0.15301213704771024, 0.15301213704771024]",False,True,lighter,False,0.5014637000276707,up,right,"(0, 0)","(0, 1)","(1, 0)","(0, 0)","(0, 0)","(1, 1)","(0, 0)","(0, 0)"
22,interactor,23,9.658678525318827,0.28662373039125844,0.0,135_top_u,False,,,3.857072699989658,True,"[0.28662373039125844, 0.28662373039125844, 0.28662373039125844]",True,False,lighter,,0.6498732999898493,down,up,"(1, 1)","(0, 0)","(0, 0)","(0, 0)","(0, 1)","(1, 0)","(0, 0)","(0, 0)"
23,empty,24,9.424297986907073,0.29530137993628247,-0.335,none_r,False,,,3.8567181000253186,True,"[-0.03969862006371755, -0.03969862006371755, -0.03969862006371755]",True,True,darker,True,0.7182026999653317,left,right,"(0, 0)","(1, 1)","(0, 0)","(0, 0)","(0, 0)","(1, 1)","(0, 0)","(0, 0)"
24,interactor,25,9.592014164658641,0.284517371161405,-0.168,45_bottom_l,False,,,3.8569608999532647,True,"[0.11651737116140501, 0.11651737116140501, 0.11651737116140501]",True,False,darker,True,0.6839337000274099,right,left,"(0, 0)","(0, 0)","(0, 0)","(1, 1)","(1, 0)","(0, 0)","(0, 0)","(0, 1)"
25,empty,26,9.324955809968104,0.16904480225346608,-0.335,none_d,True,3.5737726999795996,left,3.8399143000133336,True,"[-0.16595519774653394, -0.16595519774653394, -0.16595519774653394]",False,False,darker,True,0.6170566999935545,up,right,"(0, 0)","(0, 1)","(1, 0)","(0, 0)","(0, 0)","(0, 1)","(1, 0)","(0, 0)"
26,empty,27,9.778467183945462,-0.07034420283892909,0.0,none_d,True,3.5756887999596074,right,3.842160999949556,True,"[-0.07034420283892909, -0.07034420283892909, -0.07034420283892909]",False,False,darker,,0.6157420000527054,up,left,"(0, 0)","(0, 0)","(1, 0)","(0, 1)","(0, 0)","(0, 0)","(1, 0)","(0, 1)"
27,empty,28,9.799251131476508,0.0017483912090499598,0.335,none_d,False,,,3.8578662000363693,True,"[0.33674839120905, 0.33674839120905, 0.33674839120905]",True,True,lighter,True,0.4335148999816738,up,down,"(0, 0)","(0, 0)","(1, 1)","(0, 0)","(0, 0)","(0, 0)","(1, 1)","(0, 0)"
28,empty,29,9.737332340249633,-0.048616954552862746,-0.168,none_r,False,,,3.857613699976355,True,"[-0.21661695455286276, -0.21661695455286276, -0.21661695455286276]",True,True,darker,True,0.7172195000457577,left,right,"(0, 0)","(1, 1)","(0, 0)","(0, 0)","(0, 0)","(1, 1)","(0, 0)","(0, 0)"
29,empty,30,9.714542200344138,-0.018510608597375133,0.168,none_u,True,3.574863599962555,right,3.8410934999701567,True,"[0.14948939140262488, 0.14948939140262488, 0.14948939140262488]",False,False,darker,False,0.9001595000154339,down,right,"(1, 0)","(0, 1)","(0, 0)","(0, 0)","(1, 0)","(0, 1)","(0, 0)","(0, 0)"
30,empty,31,9.518175906357813,0.3369260282917156,-0.335,none_r,False,,,3.857754999946337,True,"[0.0019260282917155647, 0.0019260282917155647, 0.0019260282917155647]",True,True,darker,True,0.6664453000412323,left,right,"(0, 0)","(1, 1)","(0, 0)","(0, 0)","(0, 0)","(1, 1)","(0, 0)","(0, 0)"
31,empty,32,9.596037015542041,0.02528669724597918,0.335,none_u,True,3.57539169996744,right,3.840799400000833,True,"[0.36028669724597917, 0.36028669724597917, 0.36028669724597917]",False,False,lighter,True,0.4665674999705516,down,right,"(1, 0)","(0, 1)","(0, 0)","(0, 0)","(1, 0)","(0, 1)","(0, 0)","(0, 0)"
32,empty,33,9.077927666946323,0.006266576438871518,-0.335,none_u,True,3.5740090000326745,right,3.8415537999826483,True,"[-0.3287334235611285, -0.3287334235611285, -0.3287334235611285]",False,False,darker,True,0.5172371999942698,down,right,"(1, 0)","(0, 1)","(0, 0)","(0, 0)","(1, 0)","(0, 1)","(0, 0)","(0, 0)"
33,interactor,34,9.009076879734657,0.24433423944550894,0.335,135_top_u,True,3.5751797999837436,,3.841594700003043,True,"[0.579334239445509, 0.579334239445509, 0.579334239445509]",False,True,darker,False,0.5496863999869674,down,right,"(1, 0)","(0, 1)","(0, 0)","(0, 0)","(0, 0)","(1, 1)","(0, 0)","(0, 0)"
34,empty,35,9.415264659131731,-0.030043256125142775,0.335,none_r,False,,,3.8568788000266068,True,"[0.3049567438748573, 0.3049567438748573, 0.3049567438748573]",True,True,lighter,True,0.43410959996981546,left,right,"(0, 0)","(1, 1)","(0, 0)","(0, 0)","(0, 0)","(1, 1)","(0, 0)","(0, 0)"
35,interactor,36,9.462020089982975,-0.08556007902016399,0.168,45_top_r,False,,,3.8575877000112087,True,"[0.08243992097983602, 0.08243992097983602, 0.08243992097983602]",True,False,lighter,True,0.41654109995579347,left,right,"(0, 0)","(1, 1)","(0, 0)","(0, 0)","(0, 0)","(0, 1)","(1, 0)","(0, 0)"
36,interactor,37,9.265846512741966,0.2230812228887884,0.168,45_top_r,False,,,3.8581198999891058,True,"[0.39108122288878844, 0.39108122288878844, 0.39108122288878844]",True,False,lighter,True,0.43232080002781004,left,right,"(0, 0)","(1, 1)","(0, 0)","(0, 0)","(0, 0)","(0, 1)","(1, 0)","(0, 0)"
37,empty,38,9.673998273571579,0.05538820986448277,-0.335,none_l,True,3.5733378999866545,left,3.8414675000240095,True,"[-0.27961179013551724, -0.27961179013551724, -0.27961179013551724]",False,False,lighter,False,0.5172393000102602,right,down,"(0, 0)","(0, 0)","(0, 1)","(1, 0)","(0, 0)","(0, 0)","(0, 1)","(1, 0)"
38,empty,39,9.827996015515867,-0.09377486642455746,0.0,none_u,False,,,3.856168999976944,True,"[-0.09377486642455746, -0.09377486642455746, -0.09377486642455746]",True,True,darker,,0.6518274000263773,down,up,"(1, 1)","(0, 0)","(0, 0)","(0, 0)","(1, 1)","(0, 0)","(0, 0)","(0, 0)"
39,interactor,40,9.883971076425917,0.05441073910139553,0.335,135_bottom_r,False,,,3.857024500030093,True,"[0.38941073910139556, 0.38941073910139556, 0.38941073910139556]",True,False,lighter,True,0.4330914000165649,left,right,"(0, 0)","(1, 1)","(0, 0)","(0, 0)","(1, 0)","(0, 1)","(0, 0)","(0, 0)"
40,empty,41,9.55489036525419,0.05797578683883364,0.0,none_u,True,3.573833599977661,right,3.839949399989564,True,"[0.05797578683883364, 0.05797578683883364, 0.05797578683883364]",False,False,lighter,,0.6847027000039816,down,right,"(1, 0)","(0, 1)","(0, 0)","(0, 0)","(1, 0)","(0, 1)","(0, 0)","(0, 0)"
41,interactor,42,9.397667288163868,0.3265482008551581,0.335,45_top_u,False,,,3.8575831999769434,True,"[0.6615482008551581, 0.6615482008551581, 0.6615482008551581]",True,False,darker,False,0.4986067999852821,down,up,"(1, 1)","(0, 0)","(0, 0)","(0, 0)","(0, 1)","(0, 0)","(0, 0)","(1, 0)"
42,empty,43,9.721292227841028,0.08620518463404436,0.0,none_r,False,,,3.858256399980746,True,"[0.08620518463404436, 0.08620518463404436, 0.08620518463404436]",True,True,lighter,,0.5337182000512257,left,right,"(0, 0)","(1, 1)","(0, 0)","(0, 0)","(0, 0)","(1, 1)","(0, 0)","(0, 0)"
43,interactor,44,9.621016669509428,0.12970046917180492,-0.168,45_top_r,True,3.5740501999971457,,3.8405054999748245,True,"[-0.038299530828195094, -0.038299530828195094, -0.038299530828195094]",False,True,lighter,False,0.5352461999864317,left,down,"(0, 0)","(1, 0)","(0, 1)","(0, 0)","(0, 0)","(0, 0)","(1, 1)","(0, 0)"
44,interactor,45,9.483826840796722,-0.08573494560317457,-0.335,135_top_l,True,3.575368499965407,,3.8417847999953665,True,"[-0.4207349456031746, -0.4207349456031746, -0.4207349456031746]",False,True,darker,True,0.5508927999762818,right,down,"(0, 0)","(0, 0)","(0, 1)","(1, 0)","(0, 0)","(0, 0)","(1, 1)","(0, 0)"
45,interactor,46,9.56850027876983,0.37606855568013353,0.168,45_bottom_l,False,,,3.859289299987722,True,"[0.5440685556801336, 0.5440685556801336, 0.5440685556801336]",True,False,lighter,True,0.3830831000232138,right,left,"(0, 0)","(0, 0)","(0, 0)","(1, 1)","(1, 0)","(0, 0)","(0, 0)","(0, 1)"
46,interactor,47,9.485674093465013,0.33878442981124035,-0.168,135_top_l,True,3.5736873000278138,,3.8408671999932267,True,"[0.17078442981124034, 0.17078442981124034, 0.17078442981124034]",False,True,lighter,False,0.6351112000411376,right,down,"(0, 0)","(0, 0)","(0, 1)","(1, 0)","(0, 0)","(0, 0)","(1, 1)","(0, 0)"
47,interactor,48,9.478905583945139,0.14077317391014565,0.168,45_top_u,True,3.5737179999705404,,3.8412833000184037,True,"[0.3087731739101457, 0.3087731739101457, 0.3087731739101457]",False,True,darker,False,0.5513612999930046,down,left,"(1, 0)","(0, 0)","(0, 0)","(0, 1)","(0, 0)","(0, 0)","(0, 0)","(1, 1)"
48,interactor,49,9.424963906046937,0.09818916732291907,0.335,45_top_r,False,,,3.858955200004857,True,"[0.4331891673229191, 0.4331891673229191, 0.4331891673229191]",True,False,lighter,True,0.4340855999616906,left,right,"(0, 0)","(1, 1)","(0, 0)","(0, 0)","(0, 0)","(0, 1)","(1, 0)","(0, 0)"
49,interactor,50,9.633393868739038,0.38096380892640913,0.0,45_top_r,False,,,3.858447399979923,True,"[0.38096380892640913, 0.38096380892640913, 0.38096380892640913]",True,False,lighter,,0.6011943000485189,left,right,"(0, 0)","(1, 1)","(0, 0)","(0, 0)","(0, 0)","(0, 1)","(1, 0)","(0, 0)"
50,empty,51,9.305099176957052,0.021676829139020443,0.168,none_l,True,3.5756297999760136,right,3.842649500002153,True,"[0.18967682913902045, 0.18967682913902045, 0.18967682913902045]",False,False,lighter,True,0.6333618999924511,right,up,"(0, 1)","(0, 0)","(0, 0)","(1, 0)","(0, 1)","(0, 0)","(0, 0)","(1, 0)"
51,empty,52,9.984091420422462,0.04808980173676769,0.0,none_r,True,3.5752709000371397,right,3.857618600013666,True,"[0.04808980173676769, 0.04808980173676769, 0.04808980173676769]",False,False,lighter,,0.5676114999805577,left,down,"(0, 0)","(1, 0)","(0, 1)","(0, 0)","(0, 0)","(1, 0)","(0, 1)","(0, 0)"
52,empty,53,9.156800557048728,0.1749164764714046,0.335,none_d,True,3.5737998000113294,left,3.8411219000117853,True,"[0.5099164764714046, 0.5099164764714046, 0.5099164764714046]",False,False,lighter,True,0.4837648999528028,up,right,"(0, 0)","(0, 1)","(1, 0)","(0, 0)","(0, 0)","(0, 1)","(1, 0)","(0, 0)"
53,empty,54,10.019663312013837,0.27165385666324415,0.168,none_d,True,3.57554299995536,left,3.8588699999963865,True,"[0.4396538566632442, 0.4396538566632442, 0.4396538566632442]",False,False,lighter,True,0.6005166999530047,up,right,"(0, 0)","(0, 1)","(1, 0)","(0, 0)","(0, 0)","(0, 1)","(1, 0)","(0, 0)"
54,empty,55,9.709049595178636,-0.19396087130599074,0.168,none_l,False,,,3.857692399993539,True,"[-0.02596087130599073, -0.02596087130599073, -0.02596087130599073]",True,True,darker,False,0.5512319999979809,right,left,"(0, 0)","(0, 0)","(0, 0)","(1, 1)","(0, 0)","(0, 0)","(0, 0)","(1, 1)"
55,interactor,56,9.588266248954486,0.18934876484230587,0.168,45_bottom_l,True,3.5764470000285655,,3.841759400034789,True,"[0.3573487648423059, 0.3573487648423059, 0.3573487648423059]",False,True,lighter,True,0.5841704999911599,right,up,"(0, 1)","(0, 0)","(0, 0)","(1, 0)","(1, 1)","(0, 0)","(0, 0)","(0, 0)"
56,interactor,57,9.758345162780397,0.10396454326675716,0.168,45_bottom_d,False,,,3.8573950999998488,True,"[0.2719645432667572, 0.2719645432667572, 0.2719645432667572]",True,False,lighter,True,0.5342081999988295,up,down,"(0, 0)","(0, 0)","(1, 1)","(0, 0)","(0, 0)","(1, 0)","(0, 1)","(0, 0)"
57,interactor,58,9.445238874148739,-0.013923298577385917,0.0,135_top_l,True,3.5731035000062548,,3.8412492999923415,True,"[-0.013923298577385917, -0.013923298577385917, -0.013923298577385917]",False,True,darker,,0.45000459998846054,right,down,"(0, 0)","(0, 0)","(0, 1)","(1, 0)","(0, 0)","(0, 0)","(1, 1)","(0, 0)"
58,empty,59,9.502615106777647,0.13678212919686875,0.335,none_d,True,3.5748246999573894,left,3.8405089000007138,True,"[0.4717821291968688, 0.4717821291968688, 0.4717821291968688]",False,False,lighter,True,0.41698359994916245,up,right,"(0, 0)","(0, 1)","(1, 0)","(0, 0)","(0, 0)","(0, 1)","(1, 0)","(0, 0)"
59,empty,60,9.475644510349122,0.39598304677639373,-0.168,none_r,True,3.5753510000067763,right,3.8414620999828912,True,"[0.22798304677639372, 0.22798304677639372, 0.22798304677639372]",False,False,lighter,False,0.5842825000290759,left,down,"(0, 0)","(1, 0)","(0, 1)","(0, 0)","(0, 0)","(1, 0)","(0, 1)","(0, 0)"
60,empty,61,9.035379310812269,-0.19736093477690617,0.335,none_u,True,3.5754697000375018,right,3.8425996000296436,True,"[0.13763906522309385, 0.13763906522309385, 0.13763906522309385]",False,False,lighter,True,0.449776399997063,down,right,"(1, 0)","(0, 1)","(0, 0)","(0, 0)","(1, 0)","(0, 1)","(0, 0)","(0, 0)"
61,empty,62,10.091857953863457,0.16042504005354435,0.0,none_r,True,3.575959599984344,left,3.859565199993085,True,"[0.16042504005354435, 0.16042504005354435, 0.16042504005354435]",False,False,darker,,0.6169621999724768,left,up,"(0, 1)","(1, 0)","(0, 0)","(0, 0)","(0, 1)","(1, 0)","(0, 0)","(0, 0)"
62,empty,63,9.473974784354336,0.09834324252353889,0.0,none_l,True,3.574909699964337,right,3.8397725999820977,True,"[0.09834324252353889, 0.09834324252353889, 0.09834324252353889]",False,False,lighter,,0.4340587999904528,right,up,"(0, 1)","(0, 0)","(0, 0)","(1, 0)","(0, 1)","(0, 0)","(0, 0)","(1, 0)"
63,interactor,64,9.57654444537074,0.30612911431184825,0.168,135_top_u,True,3.57492889999412,,3.8413625999819487,True,"[0.47412911431184823, 0.47412911431184823, 0.47412911431184823]",False,True,lighter,True,0.7005774000426754,down,right,"(1, 0)","(0, 1)","(0, 0)","(0, 0)","(0, 0)","(1, 1)","(0, 0)","(0, 0)"
64,interactor,65,9.60989945011217,0.045880582953274754,-0.335,135_bottom_d,False,,,3.857976700004656,True,"[-0.2891194170467253, -0.2891194170467253, -0.2891194170467253]",True,False,darker,True,0.49993490002816543,up,down,"(0, 0)","(0, 0)","(1, 1)","(0, 0)","(0, 0)","(0, 0)","(0, 1)","(1, 0)"
65,empty,66,9.650549081092835,-0.09130508151854186,-0.168,none_d,False,,,3.8585946999955922,True,"[-0.25930508151854187, -0.25930508151854187, -0.25930508151854187]",True,True,darker,True,0.6831615000264719,up,down,"(0, 0)","(0, 0)","(1, 1)","(0, 0)","(0, 0)","(0, 0)","(1, 1)","(0, 0)"
66,interactor,67,9.381071752587392,-0.009078988295450147,-0.335,135_top_u,False,,,3.857763400010299,True,"[-0.34407898829545014, -0.34407898829545014, -0.34407898829545014]",True,False,darker,True,0.566067399980966,down,up,"(1, 1)","(0, 0)","(0, 0)","(0, 0)","(0, 1)","(1, 0)","(0, 0)","(0, 0)"
67,interactor,68,9.697213980728517,0.28045381271481573,-0.335,45_bottom_d,False,,,3.858689400018193,True,"[-0.05454618728518429, -0.05454618728518429, -0.05454618728518429]",True,False,darker,True,0.6842838999582455,up,down,"(0, 0)","(0, 0)","(1, 1)","(0, 0)","(0, 0)","(1, 0)","(0, 1)","(0, 0)"
68,interactor,69,9.738141826421778,0.13259188954425613,-0.335,135_top_l,False,,,3.8567719999700785,True,"[-0.2024081104557439, -0.2024081104557439, -0.2024081104557439]",True,False,darker,True,0.6163597000413574,right,left,"(0, 0)","(0, 0)","(0, 0)","(1, 1)","(0, 0)","(0, 0)","(1, 0)","(0, 1)"
69,empty,70,9.178838273756897,0.24598840551640283,0.168,none_r,True,3.575374700012617,right,3.8418011000030674,True,"[0.4139884055164028, 0.4139884055164028, 0.4139884055164028]",False,False,lighter,True,0.46736010001040995,left,down,"(0, 0)","(1, 0)","(0, 1)","(0, 0)","(0, 0)","(1, 0)","(0, 1)","(0, 0)"
70,empty,71,9.556483515202306,-0.08483778152629509,0.0,none_d,False,,,3.8591184999677353,True,"[-0.08483778152629509, -0.08483778152629509, -0.08483778152629509]",True,True,lighter,,0.5836699000210501,up,down,"(0, 0)","(0, 0)","(1, 1)","(0, 0)","(0, 0)","(0, 0)","(1, 1)","(0, 0)"
71,empty,72,9.150609002269501,0.18561870851465215,0.0,none_l,False,,,3.8593898999970406,True,"[0.18561870851465215, 0.18561870851465215, 0.18561870851465215]",True,True,lighter,,0.48262720002094284,right,left,"(0, 0)","(0, 0)","(0, 0)","(1, 1)","(0, 0)","(0, 0)","(0, 0)","(1, 1)"
72,interactor,73,10.037599355372976,0.1753337556880537,0.335,135_top_u,True,3.5736423000344075,,3.8577464999980293,True,"[0.5103337556880537, 0.5103337556880537, 0.5103337556880537]",False,True,lighter,True,0.45097960002021864,down,right,"(1, 0)","(0, 1)","(0, 0)","(0, 0)","(0, 0)","(1, 1)","(0, 0)","(0, 0)"
73,empty,74,9.75831404149695,0.29937125729443714,0.0,none_u,True,3.573912299994845,right,3.8403897000243887,True,"[0.29937125729443714, 0.29937125729443714, 0.29937125729443714]",False,False,lighter,,0.5854623999912292,down,right,"(1, 0)","(0, 1)","(0, 0)","(0, 0)","(1, 0)","(0, 1)","(0, 0)","(0, 0)"
74,interactor,75,9.522175846013361,0.3205296289487285,0.0,135_bottom_d,False,,,3.8591643000254408,True,"[0.3205296289487285, 0.3205296289487285, 0.3205296289487285]",True,False,lighter,,0.5663520999951288,up,down,"(0, 0)","(0, 0)","(1, 1)","(0, 0)","(0, 0)","(0, 0)","(0, 1)","(1, 0)"
75,empty,76,9.545461409793825,0.21504781376822935,-0.335,none_r,False,,,3.8592465999536216,True,"[-0.11995218623177067, -0.11995218623177067, -0.11995218623177067]",True,True,darker,True,0.5168820000253618,left,right,"(0, 0)","(1, 1)","(0, 0)","(0, 0)","(0, 0)","(1, 1)","(0, 0)","(0, 0)"
76,interactor,77,9.447914268473864,0.05886077033307009,0.0,45_bottom_l,True,3.5725282999919727,,3.8401110999984667,True,"[0.05886077033307009, 0.05886077033307009, 0.05886077033307009]",False,True,darker,,0.7163465999765322,right,up,"(0, 1)","(0, 0)","(0, 0)","(1, 0)","(1, 1)","(0, 0)","(0, 0)","(0, 0)"
77,empty,78,9.436028109983859,0.15700044993539006,0.0,none_u,False,,,3.857248999993317,True,"[0.15700044993539006, 0.15700044993539006, 0.15700044993539006]",True,True,darker,,0.5173288000514731,down,up,"(1, 1)","(0, 0)","(0, 0)","(0, 0)","(1, 1)","(0, 0)","(0, 0)","(0, 0)"
78,interactor,79,9.833376070046722,-0.0483321572454494,0.168,45_bottom_d,True,3.5737888000439852,,3.857160900020972,True,"[0.11966784275455061, 0.11966784275455061, 0.11966784275455061]",False,True,lighter,True,0.31786060001468286,up,right,"(0, 0)","(0, 1)","(1, 0)","(0, 0)","(0, 0)","(1, 1)","(0, 0)","(0, 0)"
79,empty,80,9.432759132428377,0.21669004618793292,-0.335,none_u,True,3.5736439999891445,right,3.8406638999585994,True,"[-0.1183099538120671, -0.1183099538120671, -0.1183099538120671]",False,False,darker,True,0.5832108000176959,down,right,"(1, 0)","(0, 1)","(0, 0)","(0, 0)","(1, 0)","(0, 1)","(0, 0)","(0, 0)"
80,interactor,81,9.288761605290858,0.292406507154543,0.0,45_top_r,True,3.576072199968621,,3.8422636999748647,True,"[0.292406507154543, 0.292406507154543, 0.292406507154543]",False,True,lighter,,0.5497838000301272,left,down,"(0, 0)","(1, 0)","(0, 1)","(0, 0)","(0, 0)","(0, 0)","(1, 1)","(0, 0)"
81,interactor,82,9.32240509244924,0.21961610650808894,0.0,45_top_r,False,,,3.8580994000076316,True,"[0.21961610650808894, 0.21961610650808894, 0.21961610650808894]",True,False,lighter,,0.667631899996195,left,right,"(0, 0)","(1, 1)","(0, 0)","(0, 0)","(0, 0)","(0, 1)","(1, 0)","(0, 0)"
82,interactor,83,9.150650284742536,-0.08315409579041891,0.168,135_top_l,False,,,3.8580981999984942,True,"[0.0848459042095811, 0.0848459042095811, 0.0848459042095811]",True,False,lighter,True,0.7172900000005029,right,left,"(0, 0)","(0, 0)","(0, 0)","(1, 1)","(0, 0)","(0, 0)","(1, 0)","(0, 1)"
83,interactor,84,9.283772093945819,0.13013136428658065,0.168,45_bottom_d,False,,,3.858818100008648,True,"[0.29813136428658066, 0.29813136428658066, 0.29813136428658066]",True,False,lighter,True,0.565998199977912,up,down,"(0, 0)","(0, 0)","(1, 1)","(0, 0)","(0, 0)","(1, 0)","(0, 1)","(0, 0)"
84,empty,85,9.816432907277283,0.018720622321136582,0.168,none_u,True,3.5741529000224546,right,3.857362299982924,True,"[0.1867206223211366, 0.1867206223211366, 0.1867206223211366]",False,False,lighter,True,0.5335718999849632,down,right,"(1, 0)","(0, 1)","(0, 0)","(0, 0)","(1, 0)","(0, 1)","(0, 0)","(0, 0)"
85,interactor,86,9.170629302595856,0.13952548051537866,-0.335,135_top_u,True,3.5733346000197344,,3.8417172000044957,True,"[-0.19547451948462136, -0.19547451948462136, -0.19547451948462136]",False,True,darker,True,0.4834743000101298,down,right,"(1, 0)","(0, 1)","(0, 0)","(0, 0)","(0, 0)","(1, 1)","(0, 0)","(0, 0)"
86,interactor,87,9.333366200397949,0.41582879127290706,-0.168,45_top_u,False,,,3.8575731000164524,True,"[0.24782879127290705, 0.24782879127290705, 0.24782879127290705]",True,False,darker,True,0.48241509997751564,down,up,"(1, 1)","(0, 0)","(0, 0)","(0, 0)","(0, 1)","(0, 0)","(0, 0)","(1, 0)"
87,interactor,88,9.138266260406896,0.545487134843595,0.0,135_top_u,False,,,3.8585148999700323,True,"[0.545487134843595, 0.545487134843595, 0.545487134843595]",True,False,lighter,,0.5663311000098474,down,up,"(1, 1)","(0, 0)","(0, 0)","(0, 0)","(0, 1)","(1, 0)","(0, 0)","(0, 0)"
88,empty,89,9.466659361738413,-0.049642604386913314,0.335,none_u,True,3.5737536000087857,right,3.8406510000349954,True,"[0.2853573956130867, 0.2853573956130867, 0.2853573956130867]",False,False,lighter,True,0.5672493000165559,down,right,"(1, 0)","(0, 1)","(0, 0)","(0, 0)","(1, 0)","(0, 1)","(0, 0)","(0, 0)"
89,empty,90,9.47169783134011,0.22673697230729767,0.335,none_u,False,,,3.857205900014378,True,"[0.5617369723072977, 0.5617369723072977, 0.5617369723072977]",True,True,lighter,True,0.5007077999762259,down,up,"(1, 1)","(0, 0)","(0, 0)","(0, 0)","(1, 1)","(0, 0)","(0, 0)","(0, 0)"
90,interactor,91,9.433207936830748,0.07551843992734905,0.335,135_bottom_r,True,3.5748561999644153,,3.8414876999449916,True,"[0.41051843992734904, 0.41051843992734904, 0.41051843992734904]",False,True,lighter,True,0.46832770004402846,left,up,"(0, 1)","(1, 0)","(0, 0)","(0, 0)","(1, 1)","(0, 0)","(0, 0)","(0, 0)"
91,interactor,92,9.530819131379106,0.07979200042205141,-0.335,135_bottom_r,True,3.572964699997101,,3.8393917999928817,True,"[-0.2552079995779486, -0.2552079995779486, -0.2552079995779486]",False,True,darker,True,0.5186965000466444,left,up,"(0, 1)","(1, 0)","(0, 0)","(0, 0)","(1, 1)","(0, 0)","(0, 0)","(0, 0)"
92,empty,93,9.487288909524272,0.047747361895443305,0.335,none_l,False,,,3.859424499969464,True,"[0.38274736189544334, 0.38274736189544334, 0.38274736189544334]",True,True,lighter,True,0.6324400000157766,right,left,"(0, 0)","(0, 0)","(0, 0)","(1, 1)","(0, 0)","(0, 0)","(0, 0)","(1, 1)"
93,empty,94,9.768894112157525,-0.24055494849130796,0.0,none_d,False,,,3.8587727999547496,True,"[-0.24055494849130796, -0.24055494849130796, -0.24055494849130796]",True,True,darker,,0.616038300038781,up,down,"(0, 0)","(0, 0)","(1, 1)","(0, 0)","(0, 0)","(0, 0)","(1, 1)","(0, 0)"
94,empty,95,9.547186976354281,0.045478022129716994,0.0,none_d,True,3.574514400039334,left,3.8428222000366077,True,"[0.045478022129716994, 0.045478022129716994, 0.045478022129716994]",False,False,lighter,,0.5166276999516413,up,right,"(0, 0)","(0, 1)","(1, 0)","(0, 0)","(0, 0)","(0, 1)","(1, 0)","(0, 0)"
95,empty,96,9.063223948263035,0.30399461263666316,0.0,none_u,False,,,3.8580603000009432,True,"[0.30399461263666316, 0.30399461263666316, 0.30399461263666316]",True,True,lighter,,0.5179560999968089,down,up,"(1, 1)","(0, 0)","(0, 0)","(0, 0)","(1, 1)","(0, 0)","(0, 0)","(0, 0)"
96,empty,97,9.570392494771324,0.13960642112416355,-0.335,none_d,False,,,3.8569836000096984,True,"[-0.19539357887583647, -0.19539357887583647, -0.19539357887583647]",True,True,darker,True,0.5832726999651641,up,down,"(0, 0)","(0, 0)","(1, 1)","(0, 0)","(0, 0)","(0, 0)","(1, 1)","(0, 0)"
97,interactor,98,9.54391415517035,0.2372911646400439,0.0,135_bottom_r,False,,,3.857827699976042,True,"[0.2372911646400439, 0.2372911646400439, 0.2372911646400439]",True,False,lighter,,0.5491070999996737,left,right,"(0, 0)","(1, 1)","(0, 0)","(0, 0)","(1, 0)","(0, 1)","(0, 0)","(0, 0)"
98,interactor,99,9.521047252146637,0.15157563249413383,0.168,45_top_u,False,,,3.856738200003747,True,"[0.31957563249413384, 0.31957563249413384, 0.31957563249413384]",True,False,lighter,True,0.5005178999854252,down,up,"(1, 1)","(0, 0)","(0, 0)","(0, 0)","(0, 1)","(0, 0)","(0, 0)","(1, 0)"
99,interactor,100,9.40253029125514,0.12174369893263041,-0.335,45_top_u,True,3.5739350000512786,,3.840184200031217,True,"[-0.2132563010673696, -0.2132563010673696, -0.2132563010673696]",False,True,darker,True,0.5346588999964297,down,left,"(1, 0)","(0, 0)","(0, 0)","(0, 1)","(0, 0)","(0, 0)","(0, 0)","(1, 1)"
100,empty,101,9.339417542668233,0.017741158310195543,-0.168,none_d,True,3.5765968000050634,right,3.8416686999844387,True,"[-0.15025884168980447, -0.15025884168980447, -0.15025884168980447]",False,False,darker,True,0.6342381000285968,up,left,"(0, 0)","(0, 0)","(1, 0)","(0, 1)","(0, 0)","(0, 0)","(1, 0)","(0, 1)"
101,interactor,102,9.391046039425772,0.15735514599967013,-0.335,135_top_l,False,,,3.8578908999916166,True,"[-0.1776448540003299, -0.1776448540003299, -0.1776448540003299]",True,False,darker,True,0.5672286999761127,right,left,"(0, 0)","(0, 0)","(0, 0)","(1, 1)","(0, 0)","(0, 0)","(1, 0)","(0, 1)"
102,empty,103,9.181325980826626,0.16954990718259988,0.0,none_u,False,,,3.857096299994737,True,"[0.16954990718259988, 0.16954990718259988, 0.16954990718259988]",True,True,lighter,,0.7341570000280626,down,up,"(1, 1)","(0, 0)","(0, 0)","(0, 0)","(1, 1)","(0, 0)","(0, 0)","(0, 0)"
103,empty,104,9.705188525486523,0.10456504212001624,0.168,none_l,False,,,3.8579223999986425,True,"[0.27256504212001625, 0.27256504212001625, 0.27256504212001625]",True,True,darker,False,0.5330770000000484,right,left,"(0, 0)","(0, 0)","(0, 0)","(1, 1)","(0, 0)","(0, 0)","(0, 0)","(1, 1)"
104,empty,105,9.350411859545238,0.1920537473892027,0.0,none_r,False,,,3.858115100010764,True,"[0.1920537473892027, 0.1920537473892027, 0.1920537473892027]",True,True,lighter,,0.4826837999862619,left,right,"(0, 0)","(1, 1)","(0, 0)","(0, 0)","(0, 0)","(1, 1)","(0, 0)","(0, 0)"
105,empty,106,9.455996831416051,0.0758166516228143,0.335,none_r,True,3.5734640000155196,right,3.840674900042359,True,"[0.41081665162281433, 0.41081665162281433, 0.41081665162281433]",False,False,lighter,True,0.4839492999599315,left,down,"(0, 0)","(1, 0)","(0, 1)","(0, 0)","(0, 0)","(1, 0)","(0, 1)","(0, 0)"
106,interactor,107,9.282033167420256,0.15618074392165698,-0.168,135_top_l,True,3.5736853000125848,,3.8409713999717496,True,"[-0.011819256078343027, -0.011819256078343027, -0.011819256078343027]",False,True,darker,True,0.5490932000102475,right,down,"(0, 0)","(0, 0)","(0, 1)","(1, 0)","(0, 0)","(0, 0)","(1, 1)","(0, 0)"
107,interactor,108,8.828377537855461,-0.05302287708105244,-0.335,45_bottom_l,True,3.575120399997104,,3.8416046999627724,True,"[-0.38802287708105243, -0.38802287708105243, -0.38802287708105243]",False,True,darker,True,0.5509405000484549,right,up,"(0, 1)","(0, 0)","(0, 0)","(1, 0)","(1, 1)","(0, 0)","(0, 0)","(0, 0)"
108,interactor,109,8.932152820084614,0.10895541068707187,-0.168,135_bottom_d,False,,,3.856993000023067,True,"[-0.059044589312928136, -0.059044589312928136, -0.059044589312928136]",True,False,darker,True,0.5179798000026494,up,down,"(0, 0)","(0, 0)","(1, 1)","(0, 0)","(0, 0)","(0, 0)","(0, 1)","(1, 0)"
109,interactor,110,9.102048117024868,0.07730467539764078,0.168,45_top_u,True,3.5736188999726437,,3.840887499973178,True,"[0.24530467539764078, 0.24530467539764078, 0.24530467539764078]",False,True,darker,False,0.5670313000446185,down,left,"(1, 0)","(0, 0)","(0, 0)","(0, 1)","(0, 0)","(0, 0)","(0, 0)","(1, 1)"
110,interactor,111,9.369308101379492,0.1754091979468304,-0.168,135_top_l,False,,,3.858490200014785,True,"[0.007409197946830398, 0.007409197946830398, 0.007409197946830398]",True,False,darker,True,0.6007300000055693,right,left,"(0, 0)","(0, 0)","(0, 0)","(1, 1)","(0, 0)","(0, 0)","(1, 0)","(0, 1)"
111,interactor,112,9.715967083805001,-0.10634025490646756,0.0,45_bottom_d,True,3.5751330999773927,,3.840434500016272,True,"[-0.10634025490646756, -0.10634025490646756, -0.10634025490646756]",False,True,lighter,,0.5165658000041731,up,right,"(0, 0)","(0, 1)","(1, 0)","(0, 0)","(0, 0)","(1, 1)","(0, 0)","(0, 0)"
112,empty,113,9.847073490013951,-0.07565564992115698,-0.168,none_d,True,3.5748087000101805,left,3.8573962000082247,True,"[-0.24365564992115699, -0.24365564992115699, -0.24365564992115699]",False,False,lighter,False,0.499661699985154,up,right,"(0, 0)","(0, 1)","(1, 0)","(0, 0)","(0, 0)","(0, 1)","(1, 0)","(0, 0)"
113,empty,114,9.293810445255072,0.3762761183695357,0.0,none_d,False,,,3.8574086999869905,True,"[0.3762761183695357, 0.3762761183695357, 0.3762761183695357]",True,True,lighter,,0.6004724999656901,up,down,"(0, 0)","(0, 0)","(1, 1)","(0, 0)","(0, 0)","(0, 0)","(1, 1)","(0, 0)"
114,interactor,115,9.397840324478333,0.08506471140151907,0.0,135_top_l,False,,,3.858993800007738,True,"[0.08506471140151907, 0.08506471140151907, 0.08506471140151907]",True,False,darker,,0.6161565000074916,right,left,"(0, 0)","(0, 0)","(0, 0)","(1, 1)","(0, 0)","(0, 0)","(1, 0)","(0, 1)"
115,empty,116,9.835351312068559,0.06298384748507857,-0.335,none_u,False,,,3.857140799984336,True,"[-0.27201615251492145, -0.27201615251492145, -0.27201615251492145]",True,True,darker,True,0.46571850002510473,down,up,"(1, 1)","(0, 0)","(0, 0)","(0, 0)","(1, 1)","(0, 0)","(0, 0)","(0, 0)"
116,empty,117,9.818745741314796,0.25808092697007284,0.168,none_l,False,,,3.857602300005965,True,"[0.4260809269700728, 0.4260809269700728, 0.4260809269700728]",True,True,lighter,True,0.5169324000016786,right,left,"(0, 0)","(0, 0)","(0, 0)","(1, 1)","(0, 0)","(0, 0)","(0, 0)","(1, 1)"
117,empty,118,9.461149239138754,-0.10937919491435125,0.335,none_d,False,,,3.8583630000357516,True,"[0.22562080508564877, 0.22562080508564877, 0.22562080508564877]",True,True,lighter,True,0.5000475999549963,up,down,"(0, 0)","(0, 0)","(1, 1)","(0, 0)","(0, 0)","(0, 0)","(1, 1)","(0, 0)"
118,interactor,119,9.379602283849469,0.1520467049006818,0.335,135_top_u,True,3.574918400030583,,3.840412200021092,True,"[0.4870467049006818, 0.4870467049006818, 0.4870467049006818]",False,True,lighter,True,0.5009565000073053,down,right,"(1, 0)","(0, 1)","(0, 0)","(0, 0)","(0, 0)","(1, 1)","(0, 0)","(0, 0)"
119,interactor,120,8.917739735077781,0.013699395879621434,-0.168,135_top_l,False,,,3.8574352000141516,True,"[-0.15430060412037858, -0.15430060412037858, -0.15430060412037858]",True,False,darker,True,0.5016312999650836,right,left,"(0, 0)","(0, 0)","(0, 0)","(1, 1)","(0, 0)","(0, 0)","(1, 0)","(0, 1)"
120,empty,121,9.405382550696343,0.1213293095478219,-0.335,none_u,False,,,3.859795900003519,True,"[-0.21367069045217812, -0.21367069045217812, -0.21367069045217812]",True,True,darker,True,0.5326444999664091,down,up,"(1, 1)","(0, 0)","(0, 0)","(0, 0)","(1, 1)","(0, 0)","(0, 0)","(0, 0)"
121,empty,122,9.582525143993381,0.2005957812220739,-0.335,none_u,True,3.5740465000271797,right,3.840683899994474,True,"[-0.13440421877792613, -0.13440421877792613, -0.13440421877792613]",False,False,darker,True,0.49991459999000654,down,right,"(1, 0)","(0, 1)","(0, 0)","(0, 0)","(1, 0)","(0, 1)","(0, 0)","(0, 0)"
122,empty,123,9.546304320693242,-0.0820263836327032,0.168,none_l,True,3.573679000022821,right,3.8408918000059202,True,"[0.0859736163672968, 0.0859736163672968, 0.0859736163672968]",False,False,lighter,True,0.5166804000036791,right,up,"(0, 1)","(0, 0)","(0, 0)","(1, 0)","(0, 1)","(0, 0)","(0, 0)","(1, 0)"
123,empty,124,9.510292282658996,0.19963475366659375,-0.168,none_u,False,,,3.85785950004356,True,"[0.03163475366659374, 0.03163475366659374, 0.03163475366659374]",True,True,darker,True,0.5684565999545157,down,up,"(1, 1)","(0, 0)","(0, 0)","(0, 0)","(1, 1)","(0, 0)","(0, 0)","(0, 0)"
124,interactor,125,9.396249114317609,0.2928077099034492,-0.168,135_bottom_r,True,3.573223700048402,,3.8405528000439517,True,"[0.12480770990344917, 0.12480770990344917, 0.12480770990344917]",False,True,darker,True,0.4680024999543093,left,up,"(0, 1)","(1, 0)","(0, 0)","(0, 0)","(1, 1)","(0, 0)","(0, 0)","(0, 0)"
125,empty,126,9.464342303900596,-0.11435210474052246,0.0,none_d,False,,,3.8564667000318877,True,"[-0.11435210474052246, -0.11435210474052246, -0.11435210474052246]",True,True,darker,,0.566589499998372,up,down,"(0, 0)","(0, 0)","(1, 1)","(0, 0)","(0, 0)","(0, 0)","(1, 1)","(0, 0)"
126,interactor,127,9.227662947567556,-0.24367760862596685,0.335,45_bottom_l,False,,,3.8575648999540135,True,"[0.09132239137403317, 0.09132239137403317, 0.09132239137403317]",True,False,lighter,True,0.5009198000188917,right,left,"(0, 0)","(0, 0)","(0, 0)","(1, 1)","(1, 0)","(0, 0)","(0, 0)","(0, 1)"
127,empty,128,9.649470080247724,0.31481257018091874,0.168,none_u,False,,,3.8579467999516055,True,"[0.4828125701809187, 0.4828125701809187, 0.4828125701809187]",True,True,lighter,True,0.6348235000041313,down,up,"(1, 1)","(0, 0)","(0, 0)","(0, 0)","(1, 1)","(0, 0)","(0, 0)","(0, 0)"
128,empty,129,9.367560715970885,-0.00631195740008661,0.0,none_l,False,,,3.8569904000032693,True,"[-0.00631195740008661, -0.00631195740008661, -0.00631195740008661]",True,True,darker,,0.5508461999706924,right,left,"(0, 0)","(0, 0)","(0, 0)","(1, 1)","(0, 0)","(0, 0)","(0, 0)","(1, 1)"
129,interactor,130,9.35005823119877,0.16235717771787647,0.0,45_top_u,True,3.573922000010498,,3.8405355000286363,True,"[0.16235717771787647, 0.16235717771787647, 0.16235717771787647]",False,True,darker,,0.5346392000210471,down,left,"(1, 0)","(0, 0)","(0, 0)","(0, 1)","(0, 0)","(0, 0)","(0, 0)","(1, 1)"
130,empty,131,9.309865319488104,0.17250657489803828,-0.168,none_d,False,,,3.8600047000218183,True,"[0.004506574898038268, 0.004506574898038268, 0.004506574898038268]",True,True,darker,True,0.44922030001180246,up,down,"(0, 0)","(0, 0)","(1, 1)","(0, 0)","(0, 0)","(0, 0)","(1, 1)","(0, 0)"
131,empty,132,9.483018598047314,-0.08426542797912961,-0.168,none_l,True,3.575106300006155,left,3.84106469998369,True,"[-0.25226542797912965, -0.25226542797912965, -0.25226542797912965]",False,False,darker,True,0.7346327000414021,right,down,"(0, 0)","(0, 0)","(0, 1)","(1, 0)","(0, 0)","(0, 0)","(0, 1)","(1, 0)"
132,empty,133,9.583465958615914,0.22937723000677196,-0.335,none_l,False,,,3.856579299957957,True,"[-0.10562276999322806, -0.10562276999322806, -0.10562276999322806]",True,True,darker,True,0.48340500000631437,right,left,"(0, 0)","(0, 0)","(0, 0)","(1, 1)","(0, 0)","(0, 0)","(0, 0)","(1, 1)"
133,interactor,134,9.292849489369619,-0.019292564998466127,0.0,135_bottom_d,False,,,3.8591016000136733,True,"[-0.019292564998466127, -0.019292564998466127, -0.019292564998466127]",True,False,lighter,,0.5658109000069089,up,down,"(0, 0)","(0, 0)","(1, 1)","(0, 0)","(0, 0)","(0, 0)","(0, 1)","(1, 0)"
134,empty,135,8.93478714131826,0.11700512402555036,-0.168,none_d,False,,,3.8591178000206128,True,"[-0.050994875974449655, -0.050994875974449655, -0.050994875974449655]",True,True,lighter,False,0.48293509997893125,up,down,"(0, 0)","(0, 0)","(1, 1)","(0, 0)","(0, 0)","(0, 0)","(1, 1)","(0, 0)"
135,interactor,136,9.378883618852546,0.14452203654163828,0.0,135_top_l,False,,,3.858041600033175,True,"[0.14452203654163828, 0.14452203654163828, 0.14452203654163828]",True,False,lighter,,0.5168121000169776,right,left,"(0, 0)","(0, 0)","(0, 0)","(1, 1)","(0, 0)","(0, 0)","(1, 0)","(0, 1)"
136,empty,137,9.453401514115564,0.4497964772803371,-0.168,none_r,False,,,3.857478699996136,True,"[0.2817964772803371, 0.2817964772803371, 0.2817964772803371]",True,True,lighter,False,0.5673380000516772,left,right,"(0, 0)","(1, 1)","(0, 0)","(0, 0)","(0, 0)","(1, 1)","(0, 0)","(0, 0)"
137,empty,138,9.293093263941886,-0.12635691453901113,0.168,none_l,True,3.5750937999691814,left,3.842248799977824,True,"[0.04164308546098888, 0.04164308546098888, 0.04164308546098888]",False,False,lighter,True,1.032146300014574,right,down,"(0, 0)","(0, 0)","(0, 1)","(1, 0)","(0, 0)","(0, 0)","(0, 1)","(1, 0)"
138,interactor,139,9.427749799144031,0.5117293484731222,0.168,135_bottom_d,True,3.5745311999926344,,3.842036799993366,True,"[0.6797293484731223, 0.6797293484731223, 0.6797293484731223]",False,True,darker,False,0.483970400004182,up,left,"(0, 0)","(0, 0)","(1, 0)","(0, 1)","(0, 0)","(0, 0)","(0, 0)","(1, 1)"
139,empty,140,9.429972491049677,0.27026896609798073,0.168,none_r,False,,,3.8575976999709383,True,"[0.4382689660979807, 0.4382689660979807, 0.4382689660979807]",True,True,darker,False,0.3843586000148207,left,right,"(0, 0)","(1, 1)","(0, 0)","(0, 0)","(0, 0)","(1, 1)","(0, 0)","(0, 0)"
140,interactor,141,9.790471436074299,0.38613462192643566,-0.335,45_top_r,False,,,3.8594801999861374,True,"[0.05113462192643564, 0.05113462192643564, 0.05113462192643564]",True,False,darker,True,0.5168416000087745,left,right,"(0, 0)","(1, 1)","(0, 0)","(0, 0)","(0, 0)","(0, 1)","(1, 0)","(0, 0)"
141,interactor,142,9.776109957771277,-0.020923534408352068,-0.335,135_bottom_r,True,3.5729931000387296,,3.840358500019647,True,"[-0.3559235344083521, -0.3559235344083521, -0.3559235344083521]",False,True,darker,True,0.616912700003013,left,up,"(0, 1)","(1, 0)","(0, 0)","(0, 0)","(1, 1)","(0, 0)","(0, 0)","(0, 0)"
142,interactor,143,9.360367089299011,-0.2981851192243471,0.335,45_bottom_l,True,3.5747995999990962,,3.841366200009361,True,"[0.036814880775652925, 0.036814880775652925, 0.036814880775652925]",False,True,lighter,True,0.5006332999910228,right,up,"(0, 1)","(0, 0)","(0, 0)","(1, 0)","(1, 1)","(0, 0)","(0, 0)","(0, 0)"
143,interactor,144,9.760586753375943,0.4108956299173948,0.335,45_bottom_l,True,3.573211800015997,,3.8413763000280596,True,"[0.7458956299173949, 0.7458956299173949, 0.7458956299173949]",False,True,lighter,True,0.6328649999923073,right,up,"(0, 1)","(0, 0)","(0, 0)","(1, 0)","(1, 1)","(0, 0)","(0, 0)","(0, 0)"
144,interactor,145,9.725791366542584,-0.05281724554900802,0.168,45_top_r,False,,,3.858230600017123,True,"[0.11518275445099199, 0.11518275445099199, 0.11518275445099199]",True,False,lighter,True,0.5165658000041731,left,right,"(0, 0)","(1, 1)","(0, 0)","(0, 0)","(0, 0)","(0, 1)","(1, 0)","(0, 0)"
145,interactor,146,9.236144135714179,-0.08172403174664603,-0.168,135_bottom_r,True,3.5746532999910414,,3.842051799991168,True,"[-0.24972403174664604, -0.24972403174664604, -0.24972403174664604]",False,True,darker,True,0.3992294000345282,left,up,"(0, 1)","(1, 0)","(0, 0)","(0, 0)","(1, 1)","(0, 0)","(0, 0)","(0, 0)"
146,interactor,147,9.753498259458878,0.1943381597429779,0.0,135_bottom_d,True,3.575329300016165,,3.8416271000169218,True,"[0.1943381597429779, 0.1943381597429779, 0.1943381597429779]",False,True,lighter,,0.48511489998782054,up,left,"(0, 0)","(0, 0)","(1, 0)","(0, 1)","(0, 0)","(0, 0)","(0, 0)","(1, 1)"
147,empty,148,9.678224440352233,0.1283887962674028,0.335,none_l,True,3.5739330999786034,right,3.8397592999972403,True,"[0.4633887962674028, 0.4633887962674028, 0.4633887962674028]",False,False,lighter,True,0.5344443999929354,right,up,"(0, 1)","(0, 0)","(0, 0)","(1, 0)","(0, 1)","(0, 0)","(0, 0)","(1, 0)"
148,interactor,149,9.351601217950284,0.20818827550081467,-0.335,135_bottom_d,False,,,3.8584803999983706,True,"[-0.12681172449918535, -0.12681172449918535, -0.12681172449918535]",True,False,darker,True,0.45067750004818663,up,down,"(0, 0)","(0, 0)","(1, 1)","(0, 0)","(0, 0)","(0, 0)","(0, 1)","(1, 0)"
149,interactor,150,9.577165838594379,0.44584732572567476,0.168,135_top_l,True,3.573367699980736,,3.8407420000294223,True,"[0.6138473257256748, 0.6138473257256748, 0.6138473257256748]",False,True,lighter,True,0.5997430999996141,right,down,"(0, 0)","(0, 0)","(0, 1)","(1, 0)","(0, 0)","(0, 0)","(1, 1)","(0, 0)"
150,empty,151,9.183020816232139,-0.010421416158239716,-0.168,none_l,False,,,3.859809099987615,True,"[-0.17842141615823973, -0.17842141615823973, -0.17842141615823973]",True,True,darker,True,0.5006105999927968,right,left,"(0, 0)","(0, 0)","(0, 0)","(1, 1)","(0, 0)","(0, 0)","(0, 0)","(1, 1)"
151,interactor,152,9.447560395156602,0.4742931330055665,-0.168,45_bottom_l,True,3.574999400007073,,3.84054110001307,True,"[0.3062931330055665, 0.3062931330055665, 0.3062931330055665]",False,True,lighter,False,0.5497668999596499,right,up,"(0, 1)","(0, 0)","(0, 0)","(1, 0)","(1, 1)","(0, 0)","(0, 0)","(0, 0)"
152,empty,153,9.697654884168985,0.28738760449251644,-0.335,none_u,False,,,3.8570381000172347,True,"[-0.047612395507483585, -0.047612395507483585, -0.047612395507483585]",True,True,darker,True,0.36700550001114607,down,up,"(1, 1)","(0, 0)","(0, 0)","(0, 0)","(1, 1)","(0, 0)","(0, 0)","(0, 0)"
153,empty,154,9.537979789772626,0.22979729006762667,-0.335,none_l,True,3.5756401999969967,left,3.8421606000047177,True,"[-0.10520270993237335, -0.10520270993237335, -0.10520270993237335]",False,False,darker,True,0.417469100037124,right,down,"(0, 0)","(0, 0)","(0, 1)","(1, 0)","(0, 0)","(0, 0)","(0, 1)","(1, 0)"
154,interactor,155,9.358841421881264,0.20922118089008473,0.168,45_top_u,True,3.5748216999927536,,3.8422277999925427,True,"[0.3772211808900847, 0.3772211808900847, 0.3772211808900847]",False,True,darker,False,0.5157902999781072,down,left,"(1, 0)","(0, 0)","(0, 0)","(0, 1)","(0, 0)","(0, 0)","(0, 0)","(1, 1)"
155,interactor,156,9.810344659776147,-0.0030113502936005287,0.335,45_top_r,True,3.574781300034374,,3.859337100002449,True,"[0.3319886497063995, 0.3319886497063995, 0.3319886497063995]",False,True,lighter,True,0.46642390004126355,left,down,"(0, 0)","(1, 0)","(0, 1)","(0, 0)","(0, 0)","(0, 0)","(1, 1)","(0, 0)"
156,empty,157,9.203795298962584,-0.03872658644942836,-0.168,none_u,False,,,3.858430300024338,True,"[-0.20672658644942837, -0.20672658644942837, -0.20672658644942837]",True,True,darker,True,0.5015293000033125,down,up,"(1, 1)","(0, 0)","(0, 0)","(0, 0)","(1, 1)","(0, 0)","(0, 0)","(0, 0)"
157,empty,158,9.860148064623168,0.2549965726284307,-0.335,none_d,False,,,3.857648200006224,True,"[-0.08000342737156935, -0.08000342737156935, -0.08000342737156935]",True,True,darker,True,0.5164031999884173,up,down,"(0, 0)","(0, 0)","(1, 1)","(0, 0)","(0, 0)","(0, 0)","(1, 1)","(0, 0)"
158,interactor,159,9.729889015763295,0.2028891459897877,-0.335,45_top_u,False,,,3.8572274000034668,True,"[-0.13211085401021233, -0.13211085401021233, -0.13211085401021233]",True,False,darker,True,0.4005009999964386,down,up,"(1, 1)","(0, 0)","(0, 0)","(0, 0)","(0, 1)","(0, 0)","(0, 0)","(1, 0)"
159,empty,160,9.648954130821432,0.03465701063137251,0.335,none_r,True,3.5754177999915555,left,3.840655100008007,True,"[0.3696570106313725, 0.3696570106313725, 0.3696570106313725]",False,False,lighter,True,0.6012513000168838,left,up,"(0, 1)","(1, 0)","(0, 0)","(0, 0)","(0, 1)","(1, 0)","(0, 0)","(0, 0)"
160,interactor,161,9.566079614553797,0.18331239845516395,-0.168,135_bottom_r,False,,,3.857122600020375,True,"[0.01531239845516394, 0.01531239845516394, 0.01531239845516394]",True,False,darker,True,0.500216200016439,left,right,"(0, 0)","(1, 1)","(0, 0)","(0, 0)","(1, 0)","(0, 1)","(0, 0)","(0, 0)"
161,interactor,162,9.832683709744703,0.16025875463640726,-0.335,45_top_r,True,3.5752739000017755,,3.858815800049342,True,"[-0.17474124536359276, -0.17474124536359276, -0.17474124536359276]",False,True,darker,True,0.5333623999613337,left,down,"(0, 0)","(1, 0)","(0, 1)","(0, 0)","(0, 0)","(0, 0)","(1, 1)","(0, 0)"
162,empty,163,9.738667697315885,0.0740398152872229,-0.168,none_l,True,3.5752021999796852,left,3.841387399996165,True,"[-0.09396018471277712, -0.09396018471277712, -0.09396018471277712]",False,False,darker,True,0.48321320000104606,right,down,"(0, 0)","(0, 0)","(0, 1)","(1, 0)","(0, 0)","(0, 0)","(0, 1)","(1, 0)"
163,interactor,164,9.740181292945163,0.5948382419049117,0.168,135_top_l,True,3.5750839000102133,,3.8414489999995567,True,"[0.7628382419049118, 0.7628382419049118, 0.7628382419049118]",False,True,lighter,True,0.5992290999856777,right,down,"(0, 0)","(0, 0)","(0, 1)","(1, 0)","(0, 0)","(0, 0)","(1, 1)","(0, 0)"
164,empty,165,9.641159805235983,0.20940628707240622,0.168,none_r,True,3.57544919999782,left,3.841526900010649,True,"[0.3774062870724062, 0.3774062870724062, 0.3774062870724062]",False,False,lighter,True,0.6995913999853656,left,up,"(0, 1)","(1, 0)","(0, 0)","(0, 0)","(0, 1)","(1, 0)","(0, 0)","(0, 0)"
165,empty,166,9.53441740796416,0.13234354999680048,0.168,none_r,True,3.5746365999802947,left,3.841169200022705,True,"[0.30034354999680046, 0.30034354999680046, 0.30034354999680046]",False,False,lighter,True,0.8000098999473266,left,up,"(0, 1)","(1, 0)","(0, 0)","(0, 0)","(0, 1)","(1, 0)","(0, 0)","(0, 0)"
166,empty,167,9.534854158781872,0.06832470203889274,0.335,none_d,False,,,3.8574476999929175,True,"[0.40332470203889276, 0.40332470203889276, 0.40332470203889276]",True,True,lighter,True,0.43537419999483973,up,down,"(0, 0)","(0, 0)","(1, 1)","(0, 0)","(0, 0)","(0, 0)","(1, 1)","(0, 0)"
167,interactor,168,9.144809326724694,-0.1587983001365311,0.335,45_bottom_d,False,,,3.858561900036875,True,"[0.17620169986346892, 0.17620169986346892, 0.17620169986346892]",True,False,lighter,True,0.5165131999528967,up,down,"(0, 0)","(0, 0)","(1, 1)","(0, 0)","(0, 0)","(1, 0)","(0, 1)","(0, 0)"
168,interactor,169,9.322970372536338,0.19107817752628933,-0.168,135_top_u,True,3.5752940999809653,,3.8406427000300027,True,"[0.023078177526289323, 0.023078177526289323, 0.023078177526289323]",False,True,darker,True,0.5346296999487095,down,right,"(1, 0)","(0, 1)","(0, 0)","(0, 0)","(0, 0)","(1, 1)","(0, 0)","(0, 0)"
169,empty,170,9.518933362476874,0.03993771257668714,0.168,none_l,False,,,3.8576274999650195,True,"[0.20793771257668714, 0.20793771257668714, 0.20793771257668714]",True,True,lighter,True,0.5013349000364542,right,left,"(0, 0)","(0, 0)","(0, 0)","(1, 1)","(0, 0)","(0, 0)","(0, 0)","(1, 1)"
170,empty,171,10.007140124520964,0.07714856146148726,0.168,none_r,True,3.575610100000631,right,3.8588849999941885,True,"[0.24514856146148728, 0.24514856146148728, 0.24514856146148728]",False,False,lighter,True,0.5008492000051774,left,down,"(0, 0)","(1, 0)","(0, 1)","(0, 0)","(0, 0)","(1, 0)","(0, 1)","(0, 0)"
171,empty,172,9.099683216183704,0.1587445963513773,0.168,none_r,True,3.57410509994952,right,3.84113899996737,True,"[0.3267445963513773, 0.3267445963513773, 0.3267445963513773]",False,False,lighter,True,0.5009531999821775,left,down,"(0, 0)","(1, 0)","(0, 1)","(0, 0)","(0, 0)","(1, 0)","(0, 1)","(0, 0)"
172,empty,173,9.559097349739869,0.19908704861895327,-0.168,none_d,True,3.5760301999980584,right,3.84201080002822,True,"[0.031087048618953256, 0.031087048618953256, 0.031087048618953256]",False,False,lighter,False,0.5995083000161685,up,left,"(0, 0)","(0, 0)","(1, 0)","(0, 1)","(0, 0)","(0, 0)","(1, 0)","(0, 1)"
173,interactor,174,9.98730951535483,0.2781927277401533,-0.335,135_top_l,True,3.5751726999878883,,3.8596451999619603,True,"[-0.05680727225984672, -0.05680727225984672, -0.05680727225984672]",False,True,darker,True,0.3664397000102326,right,down,"(0, 0)","(0, 0)","(0, 1)","(1, 0)","(0, 0)","(0, 0)","(1, 1)","(0, 0)"
174,empty,175,9.961288753555134,0.4442443633749006,0.0,none_d,False,,,3.8574700000463054,True,"[0.4442443633749006, 0.4442443633749006, 0.4442443633749006]",True,True,lighter,,0.4983642000006512,up,down,"(0, 0)","(0, 0)","(1, 1)","(0, 0)","(0, 0)","(0, 0)","(1, 1)","(0, 0)"
175,empty,176,9.76708205995129,0.20887467091431317,0.335,none_u,False,,,3.8580859000212513,True,"[0.5438746709143132, 0.5438746709143132, 0.5438746709143132]",True,True,lighter,True,0.44878560001961887,down,up,"(1, 1)","(0, 0)","(0, 0)","(0, 0)","(1, 1)","(0, 0)","(0, 0)","(0, 0)"
176,interactor,177,9.502405083668355,0.29030855344839057,0.168,45_bottom_d,True,3.5743344000075012,,3.8406935000093654,True,"[0.4583085534483906, 0.4583085534483906, 0.4583085534483906]",False,True,lighter,True,0.5690812999964692,up,right,"(0, 0)","(0, 1)","(1, 0)","(0, 0)","(0, 0)","(1, 1)","(0, 0)","(0, 0)"
177,interactor,178,9.517210780175297,0.16324879966486117,-0.168,135_top_u,False,,,3.8585957000032067,True,"[-0.004751200335138844, -0.004751200335138844, -0.004751200335138844]",True,False,lighter,False,0.5167596999672242,down,up,"(1, 1)","(0, 0)","(0, 0)","(0, 0)","(0, 1)","(1, 0)","(0, 0)","(0, 0)"
178,empty,179,9.476831505331546,0.5661315504915776,0.0,none_d,False,,,3.857888499973342,True,"[0.5661315504915776, 0.5661315504915776, 0.5661315504915776]",True,True,lighter,,0.5681962000089698,up,down,"(0, 0)","(0, 0)","(1, 1)","(0, 0)","(0, 0)","(0, 0)","(1, 1)","(0, 0)"
179,interactor,180,9.539849254829226,0.0036463651770808347,0.0,135_top_u,True,3.5732745999703184,,3.8404235999914818,True,"[0.0036463651770808347, 0.0036463651770808347, 0.0036463651770808347]",False,True,darker,,0.6843698000302538,down,right,"(1, 0)","(0, 1)","(0, 0)","(0, 0)","(0, 0)","(1, 1)","(0, 0)","(0, 0)"
180,interactor,181,9.48646087037864,0.2404327152062895,-0.335,45_bottom_l,False,,,3.859374099993147,True,"[-0.09456728479371052, -0.09456728479371052, -0.09456728479371052]",True,False,darker,True,0.5492270000395365,right,left,"(0, 0)","(0, 0)","(0, 0)","(1, 1)","(1, 0)","(0, 0)","(0, 0)","(0, 1)"
181,empty,182,9.10056962002968,0.07457979637720237,0.0,none_d,True,3.574645499989856,left,3.8428494000108913,True,"[0.07457979637720237, 0.07457979637720237, 0.07457979637720237]",False,False,lighter,,0.6332967999624088,up,right,"(0, 0)","(0, 1)","(1, 0)","(0, 0)","(0, 0)","(0, 1)","(1, 0)","(0, 0)"
182,interactor,183,9.950642948219363,-0.09747533487168605,0.335,135_bottom_d,False,,,3.8587757000350393,True,"[0.23752466512831397, 0.23752466512831397, 0.23752466512831397]",True,False,lighter,True,0.5496706999838352,up,down,"(0, 0)","(0, 0)","(1, 1)","(0, 0)","(0, 0)","(0, 0)","(0, 1)","(1, 0)"
183,empty,184,9.31094985584897,0.13451525361472352,-0.335,none_l,False,,,3.8585151999723166,True,"[-0.2004847463852765, -0.2004847463852765, -0.2004847463852765]",True,True,darker,True,0.4664226000313647,right,left,"(0, 0)","(0, 0)","(0, 0)","(1, 1)","(0, 0)","(0, 0)","(0, 0)","(1, 1)"
184,empty,185,9.664639336504925,0.4426922411621299,0.0,none_u,False,,,3.858529000019189,True,"[0.4426922411621299, 0.4426922411621299, 0.4426922411621299]",True,True,darker,,0.46702290000393987,down,up,"(1, 1)","(0, 0)","(0, 0)","(0, 0)","(1, 1)","(0, 0)","(0, 0)","(0, 0)"
185,empty,186,9.44388421324776,-0.18331836045770047,-0.168,none_l,True,3.573898000002373,right,3.8399302000179887,True,"[-0.3513183604577005, -0.3513183604577005, -0.3513183604577005]",False,False,darker,True,0.4678395999944769,right,up,"(0, 1)","(0, 0)","(0, 0)","(1, 0)","(0, 1)","(0, 0)","(0, 0)","(1, 0)"
186,empty,187,9.348867885858137,-0.1284207706802992,-0.168,none_r,False,,,3.8572291000164114,True,"[-0.2964207706802992, -0.2964207706802992, -0.2964207706802992]",True,True,darker,True,0.5671704999986105,left,right,"(0, 0)","(1, 1)","(0, 0)","(0, 0)","(0, 0)","(1, 1)","(0, 0)","(0, 0)"
187,empty,188,9.366867705496352,0.290882066604083,0.0,none_u,True,3.5732512999675237,right,3.840510500012897,True,"[0.290882066604083, 0.290882066604083, 0.290882066604083]",False,False,lighter,,0.733856700011529,down,right,"(1, 0)","(0, 1)","(0, 0)","(0, 0)","(1, 0)","(0, 1)","(0, 0)","(0, 0)"
188,empty,189,9.847208602013358,0.314917369726625,0.335,none_r,False,,,3.8577799000195228,True,"[0.649917369726625, 0.649917369726625, 0.649917369726625]",True,True,lighter,True,0.5850109999882989,left,right,"(0, 0)","(1, 1)","(0, 0)","(0, 0)","(0, 0)","(1, 1)","(0, 0)","(0, 0)"
189,interactor,190,9.528295562611815,0.2193978469977375,0.0,45_bottom_d,False,,,3.8579171000164934,True,"[0.2193978469977375, 0.2193978469977375, 0.2193978469977375]",True,False,darker,,0.5158657999709249,up,down,"(0, 0)","(0, 0)","(1, 1)","(0, 0)","(0, 0)","(1, 0)","(0, 1)","(0, 0)"
190,interactor,191,9.649889196424954,0.3907287996559133,0.168,45_bottom_d,False,,,3.8588532999856398,True,"[0.5587287996559133, 0.5587287996559133, 0.5587287996559133]",True,False,lighter,True,0.7181730999727733,up,down,"(0, 0)","(0, 0)","(1, 1)","(0, 0)","(0, 0)","(1, 0)","(0, 1)","(0, 0)"
191,interactor,192,9.604830525588621,0.008954708175533482,0.0,45_bottom_l,False,,,3.8588584000244737,True,"[0.008954708175533482, 0.008954708175533482, 0.008954708175533482]",True,False,darker,,0.48226690001320094,right,left,"(0, 0)","(0, 0)","(0, 0)","(1, 1)","(1, 0)","(0, 0)","(0, 0)","(0, 1)"
192,empty,193,9.411918160261207,0.18432866589943905,-0.168,none_d,False,,,3.8560557999880984,True,"[0.016328665899439043, 0.016328665899439043, 0.016328665899439043]",True,True,darker,True,0.5679530000197701,up,down,"(0, 0)","(0, 0)","(1, 1)","(0, 0)","(0, 0)","(0, 0)","(1, 1)","(0, 0)"
193,interactor,194,9.07902419181794,0.26697663628356344,0.0,45_bottom_l,False,,,3.856621599989012,True,"[0.26697663628356344, 0.26697663628356344, 0.26697663628356344]",True,False,darker,,0.6506189999636263,right,left,"(0, 0)","(0, 0)","(0, 0)","(1, 1)","(1, 0)","(0, 0)","(0, 0)","(0, 1)"
194,interactor,195,9.657386246705098,0.3101068103050203,0.168,45_top_r,True,3.574830600002315,,3.8412658000015654,True,"[0.47810681030502034, 0.47810681030502034, 0.47810681030502034]",False,True,darker,False,0.5835022000246681,left,down,"(0, 0)","(1, 0)","(0, 1)","(0, 0)","(0, 0)","(0, 0)","(1, 1)","(0, 0)"
195,interactor,196,9.209236986454254,-0.011016418351535384,0.335,135_bottom_d,True,3.5748738999827765,,3.842184300010558,True,"[0.32398358164846464, 0.32398358164846464, 0.32398358164846464]",False,True,lighter,True,0.682964899984654,up,left,"(0, 0)","(0, 0)","(1, 0)","(0, 1)","(0, 0)","(0, 0)","(0, 0)","(1, 1)"
196,empty,197,9.421279352773656,-0.06332239292770869,0.0,none_r,False,,,3.8576038000173867,True,"[-0.06332239292770869, -0.06332239292770869, -0.06332239292770869]",True,True,darker,,0.515411900007166,left,right,"(0, 0)","(1, 1)","(0, 0)","(0, 0)","(0, 0)","(1, 1)","(0, 0)","(0, 0)"
197,empty,198,9.327849692711508,0.034023387750436174,0.0,none_d,True,3.5737116999807768,right,3.840928099991288,True,"[0.034023387750436174, 0.034023387750436174, 0.034023387750436174]",False,False,darker,,0.5821824999875389,up,left,"(0, 0)","(0, 0)","(1, 0)","(0, 1)","(0, 0)","(0, 0)","(1, 0)","(0, 1)"
198,interactor,199,9.585231218945033,0.28555006360866875,0.0,45_bottom_l,True,3.574329300026875,,3.840681300032884,True,"[0.28555006360866875, 0.28555006360866875, 0.28555006360866875]",False,True,lighter,,0.7505377999623306,right,up,"(0, 1)","(0, 0)","(0, 0)","(1, 0)","(1, 1)","(0, 0)","(0, 0)","(0, 0)"
199,interactor,200,9.327563813708627,0.13873956631005044,-0.335,135_top_u,False,,,3.857247499981895,True,"[-0.19626043368994958, -0.19626043368994958, -0.19626043368994958]",True,False,darker,True,0.5012796000228263,down,up,"(1, 1)","(0, 0)","(0, 0)","(0, 0)","(0, 1)","(1, 0)","(0, 0)","(0, 0)"
200,interactor,201,9.745148043882176,0.21413286185833652,-0.335,45_bottom_l,False,,,3.8586892999592237,True,"[-0.1208671381416635, -0.1208671381416635, -0.1208671381416635]",True,False,darker,True,0.5501349000260234,right,left,"(0, 0)","(0, 0)","(0, 0)","(1, 1)","(1, 0)","(0, 0)","(0, 0)","(0, 1)"
201,empty,202,9.839535775654292,0.17314078819622572,-0.168,none_d,False,,,3.8577678999863565,True,"[0.00514078819622571, 0.00514078819622571, 0.00514078819622571]",True,True,darker,True,0.9171285000047646,up,down,"(0, 0)","(0, 0)","(1, 1)","(0, 0)","(0, 0)","(0, 0)","(1, 1)","(0, 0)"
202,empty,203,9.42462317649503,0.5828885002472273,0.335,none_d,False,,,3.8569942000322044,True,"[0.9178885002472272, 0.9178885002472272, 0.9178885002472272]",True,True,lighter,True,0.6333718000096269,up,down,"(0, 0)","(0, 0)","(1, 1)","(0, 0)","(0, 0)","(0, 0)","(1, 1)","(0, 0)"
203,empty,204,9.305608581251013,0.17963640377513945,-0.335,none_l,False,,,3.8588489000103436,True,"[-0.15536359622486057, -0.15536359622486057, -0.15536359622486057]",True,True,darker,True,0.43483839998953044,right,left,"(0, 0)","(0, 0)","(0, 0)","(1, 1)","(0, 0)","(0, 0)","(0, 0)","(1, 1)"
204,interactor,205,9.5801466095813,0.1510682992852261,0.168,135_bottom_d,True,3.5740113999927416,,3.840555200004019,True,"[0.3190682992852261, 0.3190682992852261, 0.3190682992852261]",False,True,darker,False,0.4833162999711931,up,left,"(0, 0)","(0, 0)","(1, 0)","(0, 1)","(0, 0)","(0, 0)","(0, 0)","(1, 1)"
205,empty,206,9.6368170281576,-0.17422415844077846,-0.335,none_u,True,3.575068000005558,right,3.841067600005772,True,"[-0.5092241584407785, -0.5092241584407785, -0.5092241584407785]",False,False,darker,True,0.5003616000176407,down,right,"(1, 0)","(0, 1)","(0, 0)","(0, 0)","(1, 0)","(0, 1)","(0, 0)","(0, 0)"
206,interactor,207,9.875392108779788,0.10400152145653425,-0.168,45_top_r,True,3.5744658000185154,,3.857479600002989,True,"[-0.06399847854346576, -0.06399847854346576, -0.06399847854346576]",False,True,lighter,False,0.4678715000045486,left,down,"(0, 0)","(1, 0)","(0, 1)","(0, 0)","(0, 0)","(0, 0)","(1, 1)","(0, 0)"
207,empty,208,9.828725041191754,-0.5257206600258336,0.335,none_l,False,,,3.858043899992481,True,"[-0.1907206600258336, -0.1907206600258336, -0.1907206600258336]",True,True,lighter,True,0.3659985000267625,right,left,"(0, 0)","(0, 0)","(0, 0)","(1, 1)","(0, 0)","(0, 0)","(0, 0)","(1, 1)"
208,interactor,209,9.240303803327025,0.4010562035530715,-0.168,45_bottom_d,False,,,3.8574778000474907,True,"[0.23305620355307147, 0.23305620355307147, 0.23305620355307147]",True,False,lighter,False,0.5676864999695681,up,down,"(0, 0)","(0, 0)","(1, 1)","(0, 0)","(0, 0)","(1, 0)","(0, 1)","(0, 0)"
209,interactor,210,9.426882514962644,0.3246497034794048,0.335,45_top_r,True,3.574147100036498,,3.841523400042206,True,"[0.6596497034794049, 0.6596497034794049, 0.6596497034794049]",False,True,lighter,True,0.567265999969095,left,down,"(0, 0)","(1, 0)","(0, 1)","(0, 0)","(0, 0)","(0, 0)","(1, 1)","(0, 0)"
210,interactor,211,9.365151570706375,0.14882231075485305,-0.335,135_bottom_d,True,3.574327100010123,,3.840964399976656,True,"[-0.18617768924514697, -0.18617768924514697, -0.18617768924514697]",False,True,darker,True,0.600780000037048,up,left,"(0, 0)","(0, 0)","(1, 0)","(0, 1)","(0, 0)","(0, 0)","(0, 0)","(1, 1)"
211,empty,212,9.339289839685488,0.033983593528347456,0.0,none_l,False,,,3.8578661999781616,True,"[0.033983593528347456, 0.033983593528347456, 0.033983593528347456]",True,True,darker,,0.5834276000387035,right,left,"(0, 0)","(0, 0)","(0, 0)","(1, 1)","(0, 0)","(0, 0)","(0, 0)","(1, 1)"
212,interactor,213,9.180410060752989,0.04617314719338825,0.0,45_bottom_l,False,,,3.856900399958249,True,"[0.04617314719338825, 0.04617314719338825, 0.04617314719338825]",True,False,darker,,0.7006521000294015,right,left,"(0, 0)","(0, 0)","(0, 0)","(1, 1)","(1, 0)","(0, 0)","(0, 0)","(0, 1)"
213,interactor,214,9.217981789439698,0.057506776103321236,-0.168,45_top_r,False,,,3.857458799961023,True,"[-0.11049322389667877, -0.11049322389667877, -0.11049322389667877]",True,False,darker,True,0.5841520000249147,left,right,"(0, 0)","(1, 1)","(0, 0)","(0, 0)","(0, 0)","(0, 1)","(1, 0)","(0, 0)"
214,interactor,215,9.063467647528956,0.21463804430911704,0.335,135_top_u,False,,,3.8579445999930613,True,"[0.5496380443091171, 0.5496380443091171, 0.5496380443091171]",True,False,lighter,True,0.4339958000346087,down,up,"(1, 1)","(0, 0)","(0, 0)","(0, 0)","(0, 1)","(1, 0)","(0, 0)","(0, 0)"
215,empty,216,9.216287923040401,0.35670016388300985,-0.335,none_d,True,3.5747140999883413,right,3.841145000013057,True,"[0.021700163883009826, 0.021700163883009826, 0.021700163883009826]",False,False,darker,True,0.5169632000033744,up,left,"(0, 0)","(0, 0)","(1, 0)","(0, 1)","(0, 0)","(0, 0)","(1, 0)","(0, 1)"
216,interactor,217,9.503239646855391,-0.05677267128255012,-0.168,135_top_u,True,3.5731275000143796,,3.8406030000187457,True,"[-0.22477267128255013, -0.22477267128255013, -0.22477267128255013]",False,True,darker,True,0.4996326999971643,down,right,"(1, 0)","(0, 1)","(0, 0)","(0, 0)","(0, 0)","(1, 1)","(0, 0)","(0, 0)"
217,empty,218,9.37745480922877,0.18169203065355718,0.0,none_u,False,,,3.8578295999905095,True,"[0.18169203065355718, 0.18169203065355718, 0.18169203065355718]",True,True,darker,,0.6337002000072971,down,up,"(1, 1)","(0, 0)","(0, 0)","(0, 0)","(1, 1)","(0, 0)","(0, 0)","(0, 0)"
218,empty,219,9.746804880682262,0.1073821423310629,0.0,none_d,True,3.5750617000157945,right,3.842308899969794,True,"[0.1073821423310629, 0.1073821423310629, 0.1073821423310629]",False,False,lighter,,0.6342709000455216,up,left,"(0, 0)","(0, 0)","(1, 0)","(0, 1)","(0, 0)","(0, 0)","(1, 0)","(0, 1)"
219,interactor,220,10.03875036766147,0.16009189248199712,-0.335,45_bottom_d,True,3.5733838999876752,,3.8578174999565817,True,"[-0.1749081075180029, -0.1749081075180029, -0.1749081075180029]",False,True,darker,True,0.4661857000319287,up,right,"(0, 0)","(0, 1)","(1, 0)","(0, 0)","(0, 0)","(1, 1)","(0, 0)","(0, 0)"
220,interactor,221,9.498980976528047,-0.08699590621222544,-0.335,45_bottom_d,True,3.5747338000219315,,3.8422992000123486,True,"[-0.4219959062122255, -0.4219959062122255, -0.4219959062122255]",False,True,darker,True,0.48338029999285936,up,right,"(0, 0)","(0, 1)","(1, 0)","(0, 0)","(0, 0)","(1, 1)","(0, 0)","(0, 0)"
221,empty,222,9.654158309827475,0.4939442536683686,0.0,none_u,True,3.575673099956475,left,3.843102299957536,True,"[0.4939442536683686, 0.4939442536683686, 0.4939442536683686]",False,False,darker,,0.6997981000458822,down,left,"(1, 0)","(0, 0)","(0, 0)","(0, 1)","(1, 0)","(0, 0)","(0, 0)","(0, 1)"
222,interactor,223,9.344005386418818,0.15489695754308544,0.168,135_top_u,True,3.5734599999850616,,3.840810399968177,True,"[0.32289695754308545, 0.32289695754308545, 0.32289695754308545]",False,True,darker,False,0.6515063000260852,down,right,"(1, 0)","(0, 1)","(0, 0)","(0, 0)","(0, 0)","(1, 1)","(0, 0)","(0, 0)"
223,empty,224,9.328681600788244,0.316962079326536,0.0,none_d,True,3.5759233999997377,left,3.8424419999937527,True,"[0.316962079326536, 0.316962079326536, 0.316962079326536]",False,False,lighter,,0.4334576000110246,up,right,"(0, 0)","(0, 1)","(1, 0)","(0, 0)","(0, 0)","(0, 1)","(1, 0)","(0, 0)"
224,empty,225,9.830530741563066,0.15747323365754096,-0.168,none_l,False,,,3.8583619999699295,True,"[-0.010526766342459054, -0.010526766342459054, -0.010526766342459054]",True,True,darker,True,0.5347250000340864,right,left,"(0, 0)","(0, 0)","(0, 0)","(1, 1)","(0, 0)","(0, 0)","(0, 0)","(1, 1)"
225,empty,226,9.588939243089419,0.15067965704393674,0.168,none_u,False,,,3.858176200010348,True,"[0.31867965704393675, 0.31867965704393675, 0.31867965704393675]",True,True,darker,False,0.46877669997047633,down,up,"(1, 1)","(0, 0)","(0, 0)","(0, 0)","(1, 1)","(0, 0)","(0, 0)","(0, 0)"
226,interactor,227,9.547450998957151,0.393938056488132,0.0,45_top_r,True,3.574454899993725,,3.8416669000289403,True,"[0.393938056488132, 0.393938056488132, 0.393938056488132]",False,True,darker,,0.5333610000088811,left,down,"(0, 0)","(1, 0)","(0, 1)","(0, 0)","(0, 0)","(0, 0)","(1, 1)","(0, 0)"
227,interactor,228,9.449710924088567,0.2784770144102201,-0.168,135_top_l,True,3.5739788000355475,,3.8414326999918558,True,"[0.11047701441022009, 0.11047701441022009, 0.11047701441022009]",False,True,darker,True,0.5495613000239246,right,down,"(0, 0)","(0, 0)","(0, 1)","(1, 0)","(0, 0)","(0, 0)","(1, 1)","(0, 0)"
228,interactor,229,9.700163778918197,0.1631975839069568,0.0,45_top_u,False,,,3.8566475000116043,True,"[0.1631975839069568, 0.1631975839069568, 0.1631975839069568]",True,False,lighter,,0.5845447999890894,down,up,"(1, 1)","(0, 0)","(0, 0)","(0, 0)","(0, 1)","(0, 0)","(0, 0)","(1, 0)"
229,interactor,230,10.021534952032763,-0.09715256623178939,0.335,135_bottom_r,True,3.5739621999673545,,3.8575713000027463,True,"[0.23784743376821063, 0.23784743376821063, 0.23784743376821063]",False,True,lighter,True,0.5007897999603301,left,up,"(0, 1)","(1, 0)","(0, 0)","(0, 0)","(1, 1)","(0, 0)","(0, 0)","(0, 0)"
230,empty,231,9.408859561652493,-0.0655449752822572,-0.335,none_r,True,3.5753288000123575,right,3.8425939999870025,True,"[-0.4005449752822572, -0.4005449752822572, -0.4005449752822572]",False,False,darker,True,0.716935399977956,left,down,"(0, 0)","(1, 0)","(0, 1)","(0, 0)","(0, 0)","(1, 0)","(0, 1)","(0, 0)"
231,interactor,232,9.34653556312269,0.0585759494371363,0.168,135_top_l,False,,,3.857806999993045,True,"[0.22657594943713633, 0.22657594943713633, 0.22657594943713633]",True,False,lighter,True,0.56721780000953,right,left,"(0, 0)","(0, 0)","(0, 0)","(1, 1)","(0, 0)","(0, 0)","(1, 0)","(0, 1)"
232,empty,233,9.648541608701825,-0.12378967332332888,0.335,none_u,True,3.5744926999905147,left,3.8406207999796607,True,"[0.21121032667667114, 0.21121032667667114, 0.21121032667667114]",False,False,lighter,True,0.6666232999996282,down,left,"(1, 0)","(0, 0)","(0, 0)","(0, 1)","(1, 0)","(0, 0)","(0, 0)","(0, 1)"
233,interactor,234,8.801230011494118,0.12429807783201995,0.168,45_bottom_l,False,,,3.859004099969752,True,"[0.29229807783201994, 0.29229807783201994, 0.29229807783201994]",True,False,lighter,True,0.6001188000082038,right,left,"(0, 0)","(0, 0)","(0, 0)","(1, 1)","(1, 0)","(0, 0)","(0, 0)","(0, 1)"
234,interactor,235,9.329447289593466,0.09475300487749666,0.168,135_bottom_r,False,,,3.8587651000125334,True,"[0.26275300487749664, 0.26275300487749664, 0.26275300487749664]",True,False,darker,False,0.515904399973806,left,right,"(0, 0)","(1, 1)","(0, 0)","(0, 0)","(1, 0)","(0, 1)","(0, 0)","(0, 0)"
235,interactor,236,9.792988657912952,0.29316076313587813,0.168,45_bottom_l,True,3.574630499992054,,3.8407873999676667,True,"[0.46116076313587817, 0.46116076313587817, 0.46116076313587817]",False,True,lighter,True,0.5842495000106283,right,up,"(0, 1)","(0, 0)","(0, 0)","(1, 0)","(1, 1)","(0, 0)","(0, 0)","(0, 0)"
236,interactor,237,9.498703995123217,-0.01994762376782505,0.168,135_top_u,False,,,3.85691529995529,True,"[0.14805237623217496, 0.14805237623217496, 0.14805237623217496]",True,False,lighter,True,0.5510157000389881,down,up,"(1, 1)","(0, 0)","(0, 0)","(0, 0)","(0, 1)","(1, 0)","(0, 0)","(0, 0)"
237,empty,238,9.680114807273869,0.08832479082289468,0.168,none_l,False,,,3.8579527999972925,True,"[0.2563247908228947, 0.2563247908228947, 0.2563247908228947]",True,True,lighter,True,0.7172266999841668,right,left,"(0, 0)","(0, 0)","(0, 0)","(1, 1)","(0, 0)","(0, 0)","(0, 0)","(1, 1)"
238,interactor,239,9.650719064745827,0.4081383625565116,-0.335,45_bottom_l,True,3.575037800008431,,3.8424307000241242,True,"[0.07313836255651157, 0.07313836255651157, 0.07313836255651157]",False,True,darker,True,0.5156078999862075,right,up,"(0, 1)","(0, 0)","(0, 0)","(1, 0)","(1, 1)","(0, 0)","(0, 0)","(0, 0)"
239,interactor,240,9.681316733557875,0.1456086778869482,0.168,135_bottom_r,False,,,3.857148299983237,True,"[0.31360867788694824, 0.31360867788694824, 0.31360867788694824]",True,False,lighter,True,0.6009917000192218,left,right,"(0, 0)","(1, 1)","(0, 0)","(0, 0)","(1, 0)","(0, 1)","(0, 0)","(0, 0)"
240,empty,241,9.310073648678339,0.08635014503146865,-0.168,none_l,True,3.5739091000286862,right,3.8408934000181034,True,"[-0.08164985496853136, -0.08164985496853136, -0.08164985496853136]",False,False,darker,True,0.4833811999997124,right,up,"(0, 1)","(0, 0)","(0, 0)","(1, 0)","(0, 1)","(0, 0)","(0, 0)","(1, 0)"
241,interactor,242,9.241515058879115,0.0661491659305761,-0.168,45_top_u,False,,,3.8575470999930985,True,"[-0.10185083406942391, -0.10185083406942391, -0.10185083406942391]",True,False,darker,True,0.5014156999532133,down,up,"(1, 1)","(0, 0)","(0, 0)","(0, 0)","(0, 1)","(0, 0)","(0, 0)","(1, 0)"
242,empty,243,9.618199655753637,0.29622093749410494,0.168,none_u,False,,,3.858077900018543,True,"[0.464220937494105, 0.464220937494105, 0.464220937494105]",True,True,lighter,True,0.5999918999732472,down,up,"(1, 1)","(0, 0)","(0, 0)","(0, 0)","(1, 1)","(0, 0)","(0, 0)","(0, 0)"
243,interactor,244,9.855853733002816,-0.1764924693250898,0.0,45_bottom_d,True,3.5741355000063777,,3.858578000043053,True,"[-0.1764924693250898, -0.1764924693250898, -0.1764924693250898]",False,True,lighter,,0.4499210999929346,up,right,"(0, 0)","(0, 1)","(1, 0)","(0, 0)","(0, 0)","(1, 1)","(0, 0)","(0, 0)"
244,interactor,245,9.518568432763464,0.22941844269874223,0.168,45_top_r,True,3.5740939999814145,,3.840515799995046,True,"[0.39741844269874227, 0.39741844269874227, 0.39741844269874227]",False,True,lighter,True,0.5516477000201121,left,down,"(0, 0)","(1, 0)","(0, 1)","(0, 0)","(0, 0)","(0, 0)","(1, 1)","(0, 0)"
245,interactor,246,9.334499762187109,0.08885154135072255,-0.168,135_top_u,False,,,3.857195299991872,True,"[-0.07914845864927746, -0.07914845864927746, -0.07914845864927746]",True,False,darker,True,0.5006911000236869,down,up,"(1, 1)","(0, 0)","(0, 0)","(0, 0)","(0, 1)","(1, 0)","(0, 0)","(0, 0)"
246,interactor,247,8.980877158197838,-0.08629074253034025,-0.168,45_bottom_d,False,,,3.8595164999715053,True,"[-0.25429074253034023, -0.25429074253034023, -0.25429074253034023]",True,False,darker,True,0.532733800006099,up,down,"(0, 0)","(0, 0)","(1, 1)","(0, 0)","(0, 0)","(1, 0)","(0, 1)","(0, 0)"
247,interactor,248,9.039414445926447,-0.21686257865958028,0.335,45_top_u,True,3.5742682999698445,,3.840762799954973,True,"[0.11813742134041974, 0.11813742134041974, 0.11813742134041974]",False,True,lighter,True,0.684700200043153,down,left,"(1, 0)","(0, 0)","(0, 0)","(0, 1)","(0, 0)","(0, 0)","(0, 0)","(1, 1)"
248,interactor,249,9.253399719370494,0.07484703794030702,0.0,135_bottom_r,False,,,3.857900700008031,True,"[0.07484703794030702, 0.07484703794030702, 0.07484703794030702]",True,False,lighter,,0.5844428999698721,left,right,"(0, 0)","(1, 1)","(0, 0)","(0, 0)","(1, 0)","(0, 1)","(0, 0)","(0, 0)"
249,empty,250,9.471533692069638,0.22032302940421364,-0.335,none_d,False,,,3.857200200029183,True,"[-0.11467697059578638, -0.11467697059578638, -0.11467697059578638]",True,True,darker,True,0.5830046000191942,up,down,"(0, 0)","(0, 0)","(1, 1)","(0, 0)","(0, 0)","(0, 0)","(1, 1)","(0, 0)"
250,interactor,251,9.28139563756442,0.07083433212878663,0.0,45_top_u,False,,,3.8586461000377312,True,"[0.07083433212878663, 0.07083433212878663, 0.07083433212878663]",True,False,darker,,0.8182031000033021,down,up,"(1, 1)","(0, 0)","(0, 0)","(0, 0)","(0, 1)","(0, 0)","(0, 0)","(1, 0)"
251,interactor,252,9.493903298252361,0.042775709368888984,-0.168,45_bottom_d,True,3.573862500023097,,3.8425901000155136,True,"[-0.125224290631111, -0.125224290631111, -0.125224290631111]",False,True,darker,True,0.6153184999711812,up,right,"(0, 0)","(0, 1)","(1, 0)","(0, 0)","(0, 0)","(1, 1)","(0, 0)","(0, 0)"
252,interactor,253,9.817214800664349,-0.020065387046932198,0.0,135_bottom_r,True,3.5748766000033356,,3.859674700011965,True,"[-0.020065387046932198, -0.020065387046932198, -0.020065387046932198]",False,True,darker,,0.5662711000186391,left,up,"(0, 1)","(1, 0)","(0, 0)","(0, 0)","(1, 1)","(0, 0)","(0, 0)","(0, 0)"
253,interactor,254,9.17210396743934,0.18293719408735054,0.168,45_bottom_l,False,,,3.8583596000098623,True,"[0.3509371940873506, 0.3509371940873506, 0.3509371940873506]",True,False,lighter,True,0.5156288999714889,right,left,"(0, 0)","(0, 0)","(0, 0)","(1, 1)","(1, 0)","(0, 0)","(0, 0)","(0, 1)"
254,empty,255,8.70055133814762,0.09797581717261267,-0.168,none_d,True,3.5740555000375025,right,3.8411521000089124,True,"[-0.07002418282738734, -0.07002418282738734, -0.07002418282738734]",False,False,darker,True,0.6167637000326067,up,left,"(0, 0)","(0, 0)","(1, 0)","(0, 1)","(0, 0)","(0, 0)","(1, 0)","(0, 1)"
255,empty,256,9.347095538467578,-0.05718082933202026,0.335,none_d,True,3.572869199968409,right,3.8398952999850735,True,"[0.2778191706679798, 0.2778191706679798, 0.2778191706679798]",False,False,lighter,True,0.601259500021115,up,left,"(0, 0)","(0, 0)","(1, 0)","(0, 1)","(0, 0)","(0, 0)","(1, 0)","(0, 1)"
256,interactor,257,9.472901644384123,0.41402979840996457,0.168,135_bottom_r,True,3.575004600046668,,3.841629400034435,True,"[0.5820297984099646, 0.5820297984099646, 0.5820297984099646]",False,True,lighter,True,0.6001250999979675,left,up,"(0, 1)","(1, 0)","(0, 0)","(0, 0)","(1, 1)","(0, 0)","(0, 0)","(0, 0)"
257,empty,258,9.58254497435752,0.17488314246907477,0.335,none_u,True,3.573740799969528,right,3.8420218999963254,True,"[0.5098831424690748, 0.5098831424690748, 0.5098831424690748]",False,False,darker,False,0.3328967000124976,down,right,"(1, 0)","(0, 1)","(0, 0)","(0, 0)","(1, 0)","(0, 1)","(0, 0)","(0, 0)"
258,interactor,259,8.986277268824214,0.2138677677778007,0.168,135_bottom_d,False,,,3.858727800019551,True,"[0.38186776777780074, 0.38186776777780074, 0.38186776777780074]",True,False,darker,False,0.5491660999832675,up,down,"(0, 0)","(0, 0)","(1, 1)","(0, 0)","(0, 0)","(0, 0)","(0, 1)","(1, 0)"
259,empty,260,9.469300968281644,0.050726902319235864,0.335,none_r,True,3.57451880001463,left,3.840894600027241,True,"[0.3857269023192359, 0.3857269023192359, 0.3857269023192359]",False,False,darker,False,0.5997633999795653,left,up,"(0, 1)","(1, 0)","(0, 0)","(0, 0)","(0, 1)","(1, 0)","(0, 0)","(0, 0)"
260,interactor,261,9.713904750414017,0.38007169449937095,0.0,45_top_u,True,3.574330799980089,,3.841546699986793,True,"[0.38007169449937095, 0.38007169449937095, 0.38007169449937095]",False,True,darker,,0.5008660000166856,down,left,"(1, 0)","(0, 0)","(0, 0)","(0, 1)","(0, 0)","(0, 0)","(0, 0)","(1, 1)"
261,interactor,262,9.726837278462972,0.5039104719718788,0.335,45_bottom_d,True,3.5738988000084646,,3.8405675999820232,True,"[0.8389104719718787, 0.8389104719718787, 0.8389104719718787]",False,True,lighter,True,0.9341499000438489,up,right,"(0, 0)","(0, 1)","(1, 0)","(0, 0)","(0, 0)","(1, 1)","(0, 0)","(0, 0)"
262,empty,263,9.489672751446502,0.11146378802065976,-0.335,none_r,False,,,3.858335299999453,True,"[-0.22353621197934026, -0.22353621197934026, -0.22353621197934026]",True,True,darker,True,0.4495787000050768,left,right,"(0, 0)","(1, 1)","(0, 0)","(0, 0)","(0, 0)","(1, 1)","(0, 0)","(0, 0)"
263,interactor,264,9.419830448050204,0.2790255883812268,-0.168,135_top_u,False,,,3.858654999989085,True,"[0.11102558838122681, 0.11102558838122681, 0.11102558838122681]",True,False,lighter,False,0.49853450001683086,down,up,"(1, 1)","(0, 0)","(0, 0)","(0, 0)","(0, 1)","(1, 0)","(0, 0)","(0, 0)"
264,empty,265,9.707172102314042,0.16643240469664192,-0.335,none_r,True,3.57444779999787,right,3.84100459999172,True,"[-0.1685675953033581, -0.1685675953033581, -0.1685675953033581]",False,False,darker,True,0.6338748999987729,left,down,"(0, 0)","(1, 0)","(0, 1)","(0, 0)","(0, 0)","(1, 0)","(0, 1)","(0, 0)"
265,interactor,266,9.629270478889897,-0.04707300737433143,-0.335,135_bottom_r,False,,,3.8580135999945924,True,"[-0.3820730073743315, -0.3820730073743315, -0.3820730073743315]",True,False,darker,True,0.48482690000673756,left,right,"(0, 0)","(1, 1)","(0, 0)","(0, 0)","(1, 0)","(0, 1)","(0, 0)","(0, 0)"
266,interactor,267,9.13501397753317,0.18522285301916322,-0.335,135_bottom_r,False,,,3.856390899978578,True,"[-0.1497771469808368, -0.1497771469808368, -0.1497771469808368]",True,False,darker,True,0.5177170999813825,left,right,"(0, 0)","(1, 1)","(0, 0)","(0, 0)","(1, 0)","(0, 1)","(0, 0)","(0, 0)"
267,empty,268,9.72200743675438,-0.09661545998546694,0.0,none_u,True,3.5747458999976516,right,3.8418365999823436,True,"[-0.09661545998546694, -0.09661545998546694, -0.09661545998546694]",False,False,darker,,0.7830352000310086,down,right,"(1, 0)","(0, 1)","(0, 0)","(0, 0)","(1, 0)","(0, 1)","(0, 0)","(0, 0)"
268,empty,269,9.42967374748042,0.06223899830185596,0.168,none_r,False,,,3.8584456000244245,True,"[0.23023899830185596, 0.23023899830185596, 0.23023899830185596]",True,True,lighter,True,0.5338562999968417,left,right,"(0, 0)","(1, 1)","(0, 0)","(0, 0)","(0, 0)","(1, 1)","(0, 0)","(0, 0)"
269,empty,270,9.390294533564978,-0.06739841576281813,-0.335,none_l,False,,,3.8588675999781117,True,"[-0.40239841576281815, -0.40239841576281815, -0.40239841576281815]",True,True,darker,True,0.5166675000218675,right,left,"(0, 0)","(0, 0)","(0, 0)","(1, 1)","(0, 0)","(0, 0)","(0, 0)","(1, 1)"
270,empty,271,9.33952839941421,0.19953555183803232,0.335,none_r,True,3.5758952000178397,left,3.8430611999938264,True,"[0.5345355518380324, 0.5345355518380324, 0.5345355518380324]",False,False,lighter,True,0.5331665000412613,left,up,"(0, 1)","(1, 0)","(0, 0)","(0, 0)","(0, 1)","(1, 0)","(0, 0)","(0, 0)"
271,empty,272,9.62635623301368,0.10515731385723268,0.168,none_d,True,3.576485200028401,left,3.8423953999881633,True,"[0.2731573138572327, 0.2731573138572327, 0.2731573138572327]",False,False,lighter,True,0.5007508000126109,up,right,"(0, 0)","(0, 1)","(1, 0)","(0, 0)","(0, 0)","(0, 1)","(1, 0)","(0, 0)"
272,interactor,273,9.663745591594678,0.0463664321938434,-0.335,135_bottom_r,False,,,3.8587953000096604,True,"[-0.2886335678061566, -0.2886335678061566, -0.2886335678061566]",True,False,darker,True,0.5501628000056371,left,right,"(0, 0)","(1, 1)","(0, 0)","(0, 0)","(1, 0)","(0, 1)","(0, 0)","(0, 0)"
273,interactor,274,9.370488731041739,0.28643724711059804,0.168,135_top_l,True,3.574764199962374,,3.841486299992539,True,"[0.4544372471105981, 0.4544372471105981, 0.4544372471105981]",False,True,lighter,True,0.5181634000036865,right,down,"(0, 0)","(0, 0)","(0, 1)","(1, 0)","(0, 0)","(0, 0)","(1, 1)","(0, 0)"
274,empty,275,8.97720963829311,0.29175803144413626,0.168,none_l,True,3.5753284000093117,right,3.8427199000143446,True,"[0.4597580314441363, 0.4597580314441363, 0.4597580314441363]",False,False,darker,False,0.8347394000156783,right,up,"(0, 1)","(0, 0)","(0, 0)","(1, 0)","(0, 1)","(0, 0)","(0, 0)","(1, 0)"
275,interactor,276,9.758527240752523,0.21020409075604837,0.0,135_bottom_r,True,3.5750386000145227,,3.8424178000423126,True,"[0.21020409075604837, 0.21020409075604837, 0.21020409075604837]",False,True,lighter,,0.5178859999869019,left,up,"(0, 1)","(1, 0)","(0, 0)","(0, 0)","(1, 1)","(0, 0)","(0, 0)","(0, 0)"
276,empty,277,9.39690014376812,0.3377503013333398,0.168,none_u,True,3.573050799954217,left,3.8401845999760553,True,"[0.5057503013333398, 0.5057503013333398, 0.5057503013333398]",False,False,darker,False,0.7007242999970913,down,left,"(1, 0)","(0, 0)","(0, 0)","(0, 1)","(1, 0)","(0, 0)","(0, 0)","(0, 1)"
277,empty,278,9.650809090413587,-0.003564180914057663,0.335,none_u,True,3.574270599987358,right,3.8415202999603935,True,"[0.33143581908594233, 0.33143581908594233, 0.33143581908594233]",False,False,lighter,True,0.43258620001142845,down,right,"(1, 0)","(0, 1)","(0, 0)","(0, 0)","(1, 0)","(0, 1)","(0, 0)","(0, 0)"
278,empty,279,9.779459473236985,-0.0885095550885854,-0.168,none_u,False,,,3.857652200036682,True,"[-0.2565095550885854, -0.2565095550885854, -0.2565095550885854]",True,True,darker,True,0.6503913999767974,down,up,"(1, 1)","(0, 0)","(0, 0)","(0, 0)","(1, 1)","(0, 0)","(0, 0)","(0, 0)"
279,empty,280,9.054072108902151,0.13031716923710454,-0.168,none_l,False,,,3.8579148999997415,True,"[-0.03768283076289547, -0.03768283076289547, -0.03768283076289547]",True,True,darker,True,0.5353243999998085,right,left,"(0, 0)","(0, 0)","(0, 0)","(1, 1)","(0, 0)","(0, 0)","(0, 0)","(1, 1)"
280,interactor,281,9.653210830635985,0.164922074187877,-0.335,135_top_u,True,3.5732877000118606,,3.8417670999770053,True,"[-0.17007792581212303, -0.17007792581212303, -0.17007792581212303]",False,True,darker,True,0.45084720000158995,down,right,"(1, 0)","(0, 1)","(0, 0)","(0, 0)","(0, 0)","(1, 1)","(0, 0)","(0, 0)"
281,interactor,282,9.428378070536345,0.10109602079524861,0.0,135_top_u,True,3.5738758000079542,,3.841164499986917,True,"[0.10109602079524861, 0.10109602079524861, 0.10109602079524861]",False,True,darker,,0.4500195999862626,down,right,"(1, 0)","(0, 1)","(0, 0)","(0, 0)","(0, 0)","(1, 1)","(0, 0)","(0, 0)"
282,empty,283,9.53099881105573,0.144052544435153,-0.168,none_u,False,,,3.8572273000027053,True,"[-0.02394745556484701, -0.02394745556484701, -0.02394745556484701]",True,True,darker,True,0.6001362999668345,down,up,"(1, 1)","(0, 0)","(0, 0)","(0, 0)","(1, 1)","(0, 0)","(0, 0)","(0, 0)"
283,empty,284,10.081490513441858,0.1197553342878688,0.335,none_l,False,,,3.8589605999877676,True,"[0.45475533428786885, 0.45475533428786885, 0.45475533428786885]",True,True,lighter,True,0.46573340002214536,right,left,"(0, 0)","(0, 0)","(0, 0)","(1, 1)","(0, 0)","(0, 0)","(0, 0)","(1, 1)"
284,empty,285,9.542993210658425,-0.12574362307255935,-0.168,none_u,False,,,3.856849100033287,True,"[-0.29374362307255936, -0.29374362307255936, -0.29374362307255936]",True,True,darker,True,0.5511144999763928,down,up,"(1, 1)","(0, 0)","(0, 0)","(0, 0)","(1, 1)","(0, 0)","(0, 0)","(0, 0)"
285,interactor,286,9.6883522752133,0.2184094934858622,-0.168,135_bottom_d,False,,,3.85827549995156,True,"[0.050409493485862183, 0.050409493485862183, 0.050409493485862183]",True,False,darker,True,0.5171894000377506,up,down,"(0, 0)","(0, 0)","(1, 1)","(0, 0)","(0, 0)","(0, 0)","(0, 1)","(1, 0)"
286,interactor,287,9.485988284907915,0.2304662569551466,-0.168,45_top_u,True,3.5732472999952734,,3.840842200035695,True,"[0.0624662569551466, 0.0624662569551466, 0.0624662569551466]",False,True,darker,True,0.5840242999838665,down,left,"(1, 0)","(0, 0)","(0, 0)","(0, 1)","(0, 0)","(0, 0)","(0, 0)","(1, 1)"
287,empty,288,9.218475174360847,0.037478508612526926,0.335,none_d,False,,,3.85732349997852,True,"[0.37247850861252696, 0.37247850861252696, 0.37247850861252696]",True,True,darker,False,0.5007702999864705,up,down,"(0, 0)","(0, 0)","(1, 1)","(0, 0)","(0, 0)","(0, 0)","(1, 1)","(0, 0)"
288,empty,289,9.551475141648167,0.20213652357709727,0.335,none_u,False,,,3.8574567000032403,True,"[0.5371365235770973, 0.5371365235770973, 0.5371365235770973]",True,True,lighter,True,0.4163585999631323,down,up,"(1, 1)","(0, 0)","(0, 0)","(0, 0)","(1, 1)","(0, 0)","(0, 0)","(0, 0)"
289,empty,290,9.701387673458113,-0.1648299045341984,-0.168,none_l,True,3.574633799958974,right,3.840767899993807,True,"[-0.3328299045341984, -0.3328299045341984, -0.3328299045341984]",False,False,darker,True,0.5336676999577321,right,up,"(0, 1)","(0, 0)","(0, 0)","(1, 0)","(0, 1)","(0, 0)","(0, 0)","(1, 0)"
290,empty,291,9.292096048785952,0.21539953639986764,0.0,none_l,False,,,3.858445899968501,True,"[0.21539953639986764, 0.21539953639986764, 0.21539953639986764]",True,True,darker,,0.5018830000190064,right,left,"(0, 0)","(0, 0)","(0, 0)","(1, 1)","(0, 0)","(0, 0)","(0, 0)","(1, 1)"
291,empty,292,9.308598730894174,0.706498749737238,0.168,none_d,True,3.5730709999916144,right,3.841315499972552,True,"[0.8744987497372381, 0.8744987497372381, 0.8744987497372381]",False,False,darker,False,0.7488655000342987,up,left,"(0, 0)","(0, 0)","(1, 0)","(0, 1)","(0, 0)","(0, 0)","(1, 0)","(0, 1)"
292,interactor,293,10.022717685745388,0.1448830585333491,-0.335,45_top_r,False,,,3.8584875999949872,True,"[-0.19011694146665092, -0.19011694146665092, -0.19011694146665092]",True,False,darker,True,0.5001600999967195,left,right,"(0, 0)","(1, 1)","(0, 0)","(0, 0)","(0, 0)","(0, 1)","(1, 0)","(0, 0)"
293,empty,294,9.353327336180548,0.4499674994019368,0.335,none_l,True,3.5752221000147983,left,3.841455300047528,True,"[0.7849674994019369, 0.7849674994019369, 0.7849674994019369]",False,False,lighter,True,0.6013459999812767,right,down,"(0, 0)","(0, 0)","(0, 1)","(1, 0)","(0, 0)","(0, 0)","(0, 1)","(1, 0)"
294,interactor,295,9.338219821030396,0.24288274167485358,-0.335,135_bottom_d,False,,,3.8575731000164524,True,"[-0.09211725832514644, -0.09211725832514644, -0.09211725832514644]",True,False,darker,True,0.4670958999777213,up,down,"(0, 0)","(0, 0)","(1, 1)","(0, 0)","(0, 0)","(0, 0)","(0, 1)","(1, 0)"
295,interactor,296,9.28342170177237,-0.27175332017081877,0.335,45_bottom_l,False,,,3.8598316999850795,True,"[0.06324667982918125, 0.06324667982918125, 0.06324667982918125]",True,False,lighter,True,0.5498304000357166,right,left,"(0, 0)","(0, 0)","(0, 0)","(1, 1)","(1, 0)","(0, 0)","(0, 0)","(0, 1)"
296,interactor,297,9.137894649237102,0.27416389663139085,0.168,135_bottom_r,True,3.572701099968981,,3.840244499966502,True,"[0.4421638966313909, 0.4421638966313909, 0.4421638966313909]",False,True,darker,False,0.4996610000380315,left,up,"(0, 1)","(1, 0)","(0, 0)","(0, 0)","(1, 1)","(0, 0)","(0, 0)","(0, 0)"
297,interactor,298,9.33254266199264,-0.05762432613870844,-0.168,45_bottom_l,False,,,3.8582552999723703,True,"[-0.22562432613870845, -0.22562432613870845, -0.22562432613870845]",True,False,darker,True,0.5156977000297047,right,left,"(0, 0)","(0, 0)","(0, 0)","(1, 1)","(1, 0)","(0, 0)","(0, 0)","(0, 1)"
298,empty,299,9.314571607353272,0.24763069192342432,0.335,none_r,False,,,3.857430000032764,True,"[0.5826306919234243, 0.5826306919234243, 0.5826306919234243]",True,True,lighter,True,0.5354346999665722,left,right,"(0, 0)","(1, 1)","(0, 0)","(0, 0)","(0, 0)","(1, 1)","(0, 0)","(0, 0)"
299,empty,300,9.236281776773424,0.15865678310618217,0.0,none_r,True,3.574178499984555,right,3.8406357999774627,True,"[0.15865678310618217, 0.15865678310618217, 0.15865678310618217]",False,False,lighter,,0.5166255999938585,left,down,"(0, 0)","(1, 0)","(0, 1)","(0, 0)","(0, 0)","(1, 0)","(0, 1)","(0, 0)"
300,interactor,301,9.552222594522064,0.0739564617782123,-0.168,135_top_u,True,3.574668199988082,,3.8410101999761537,True,"[-0.09404353822178771, -0.09404353822178771, -0.09404353822178771]",False,True,darker,True,0.5994441999937408,down,right,"(1, 0)","(0, 1)","(0, 0)","(0, 0)","(0, 0)","(1, 1)","(0, 0)","(0, 0)"
301,interactor,302,9.70730554277447,0.4600120803834987,0.0,135_top_l,True,3.573868799954653,,3.841114699956961,True,"[0.4600120803834987, 0.4600120803834987, 0.4600120803834987]",False,True,lighter,,0.6515096999937668,right,down,"(0, 0)","(0, 0)","(0, 1)","(1, 0)","(0, 0)","(0, 0)","(1, 1)","(0, 0)"
302,empty,303,9.241741804587088,0.021028849248586445,0.168,none_r,False,,,3.8578343000262976,True,"[0.18902884924858646, 0.18902884924858646, 0.18902884924858646]",True,True,darker,False,0.6664250000030734,left,right,"(0, 0)","(1, 1)","(0, 0)","(0, 0)","(0, 0)","(1, 1)","(0, 0)","(0, 0)"
303,interactor,304,9.938001394981406,0.16258170972423935,0.335,45_top_r,False,,,3.858799999987241,True,"[0.4975817097242394, 0.4975817097242394, 0.4975817097242394]",True,False,lighter,True,0.4509876000229269,left,right,"(0, 0)","(1, 1)","(0, 0)","(0, 0)","(0, 0)","(0, 1)","(1, 0)","(0, 0)"
304,interactor,305,10.02463206873622,0.12311186352811498,-0.335,135_bottom_d,True,3.5761985999997705,,3.8586451000301167,True,"[-0.21188813647188504, -0.21188813647188504, -0.21188813647188504]",False,True,darker,True,0.5168556999997236,up,left,"(0, 0)","(0, 0)","(1, 0)","(0, 1)","(0, 0)","(0, 0)","(0, 0)","(1, 1)"
305,empty,306,9.977729378030679,0.15362844743623144,-0.168,none_l,False,,,3.8580154000082985,True,"[-0.01437155256376857, -0.01437155256376857, -0.01437155256376857]",True,True,darker,True,0.6167936000274494,right,left,"(0, 0)","(0, 0)","(0, 0)","(1, 1)","(0, 0)","(0, 0)","(0, 0)","(1, 1)"
306,interactor,307,9.630417020439454,-0.1414363327383836,0.168,135_top_l,False,,,3.8573237999808043,True,"[0.026563667261616408, 0.026563667261616408, 0.026563667261616408]",True,False,darker,False,0.5019918000325561,right,left,"(0, 0)","(0, 0)","(0, 0)","(1, 1)","(0, 0)","(0, 0)","(1, 0)","(0, 1)"
307,interactor,308,9.525763488547257,-0.032746977970018465,-0.335,45_top_r,True,3.5745518000330776,,3.8422340999823064,True,"[-0.3677469779700185, -0.3677469779700185, -0.3677469779700185]",False,True,darker,True,0.46609650005120784,left,down,"(0, 0)","(1, 0)","(0, 1)","(0, 0)","(0, 0)","(0, 0)","(1, 1)","(0, 0)"
308,interactor,309,9.328162751560807,0.0857274837501563,0.335,135_bottom_d,False,,,3.8586383999790996,True,"[0.42072748375015634, 0.42072748375015634, 0.42072748375015634]",True,False,lighter,True,0.5003016000264324,up,down,"(0, 0)","(0, 0)","(1, 1)","(0, 0)","(0, 0)","(0, 0)","(0, 1)","(1, 0)"
309,empty,310,9.111319284688594,0.32347549600561665,0.335,none_l,True,3.573792900016997,right,3.8408785999636166,True,"[0.6584754960056167, 0.6584754960056167, 0.6584754960056167]",False,False,lighter,True,0.5678825000068173,right,up,"(0, 1)","(0, 0)","(0, 0)","(1, 0)","(0, 1)","(0, 0)","(0, 0)","(1, 0)"
310,empty,311,9.67833504225435,0.2361622964927454,-0.168,none_r,True,3.5751459000166506,left,3.841269100026693,True,"[0.06816229649274538, 0.06816229649274538, 0.06816229649274538]",False,False,darker,True,0.7016002999735065,left,up,"(0, 1)","(1, 0)","(0, 0)","(0, 0)","(0, 1)","(1, 0)","(0, 0)","(0, 0)"
311,empty,312,9.27600603268609,0.4874361180918678,0.168,none_u,True,3.5744337999494746,right,3.8416629999992438,True,"[0.6554361180918679, 0.6554361180918679, 0.6554361180918679]",False,False,lighter,True,0.6499609999591485,down,right,"(1, 0)","(0, 1)","(0, 0)","(0, 0)","(1, 0)","(0, 1)","(0, 0)","(0, 0)"
312,interactor,313,9.49844848809999,0.08523550565686137,0.0,135_bottom_d,True,3.5740608000196517,,3.840559900039807,True,"[0.08523550565686137, 0.08523550565686137, 0.08523550565686137]",False,True,darker,,0.6179266999824904,up,left,"(0, 0)","(0, 0)","(1, 0)","(0, 1)","(0, 0)","(0, 0)","(0, 0)","(1, 1)"
313,empty,314,9.325054772219994,-0.10309091613099877,-0.168,none_d,True,3.57284769997932,left,3.8400276000029407,True,"[-0.2710909161309988, -0.2710909161309988, -0.2710909161309988]",False,False,darker,True,0.5509745999588631,up,right,"(0, 0)","(0, 1)","(1, 0)","(0, 0)","(0, 0)","(0, 1)","(1, 0)","(0, 0)"
314,empty,315,9.671785831762708,0.3334720298965011,0.168,none_l,True,3.573277899995446,right,3.841547999996692,True,"[0.5014720298965011, 0.5014720298965011, 0.5014720298965011]",False,False,darker,False,0.6325932000181638,right,up,"(0, 1)","(0, 0)","(0, 0)","(1, 0)","(0, 1)","(0, 0)","(0, 0)","(1, 0)"
315,empty,316,9.515154286413424,0.2211704285884319,-0.168,none_u,True,3.5767688000341877,right,3.8421092000207864,True,"[0.05317042858843188, 0.05317042858843188, 0.05317042858843188]",False,False,darker,True,0.6010971000068821,down,right,"(1, 0)","(0, 1)","(0, 0)","(0, 0)","(1, 0)","(0, 1)","(0, 0)","(0, 0)"
316,empty,317,9.738612942622453,-0.1391259790733276,0.168,none_d,False,,,3.8572109999950044,True,"[0.028874020926672406, 0.028874020926672406, 0.028874020926672406]",True,True,lighter,True,0.44961479998892173,up,down,"(0, 0)","(0, 0)","(1, 1)","(0, 0)","(0, 0)","(0, 0)","(1, 1)","(0, 0)"
317,interactor,318,9.509943649392794,0.36201660611019926,0.335,45_bottom_l,True,3.5745476000010967,,3.8410759999533184,True,"[0.6970166061101992, 0.6970166061101992, 0.6970166061101992]",False,True,darker,False,0.7678477000445127,right,up,"(0, 1)","(0, 0)","(0, 0)","(1, 0)","(1, 1)","(0, 0)","(0, 0)","(0, 0)"
318,interactor,319,9.554813544879421,0.17928646774610071,0.0,135_bottom_d,False,,,3.8572298000217415,True,"[0.17928646774610071, 0.17928646774610071, 0.17928646774610071]",True,False,lighter,,0.5006251999875531,up,down,"(0, 0)","(0, 0)","(1, 1)","(0, 0)","(0, 0)","(0, 0)","(0, 1)","(1, 0)"
319,empty,320,9.741629455874214,-0.08126310875446274,0.335,none_l,True,3.5736441999906674,right,3.8409730999846943,True,"[0.2537368912455373, 0.2537368912455373, 0.2537368912455373]",False,False,lighter,True,0.5509965000092052,right,up,"(0, 1)","(0, 0)","(0, 0)","(1, 0)","(0, 1)","(0, 0)","(0, 0)","(1, 0)"
320,interactor,321,9.27207620035869,0.25424176527022213,0.168,135_bottom_d,False,,,3.859846999985166,True,"[0.42224176527022217, 0.42224176527022217, 0.42224176527022217]",True,False,lighter,True,0.5154859999893233,up,down,"(0, 0)","(0, 0)","(1, 1)","(0, 0)","(0, 0)","(0, 0)","(0, 1)","(1, 0)"
321,empty,322,9.58203709581852,0.2541083960681271,0.335,none_r,False,,,3.858400699973572,True,"[0.5891083960681271, 0.5891083960681271, 0.5891083960681271]",True,True,darker,False,0.4845937000354752,left,right,"(0, 0)","(1, 1)","(0, 0)","(0, 0)","(0, 0)","(1, 1)","(0, 0)","(0, 0)"
322,interactor,323,9.89740881828583,-0.023209128534574186,0.0,135_bottom_r,True,3.5732727000140585,,3.857916800014209,True,"[-0.023209128534574186, -0.023209128534574186, -0.023209128534574186]",False,True,darker,,0.49929900001734495,left,up,"(0, 1)","(1, 0)","(0, 0)","(0, 0)","(1, 1)","(0, 0)","(0, 0)","(0, 0)"
323,interactor,324,9.280150974108711,0.2699711319204761,0.168,135_top_u,False,,,3.8591286999871954,True,"[0.4379711319204761, 0.4379711319204761, 0.4379711319204761]",True,False,darker,False,0.5164597000111826,down,up,"(1, 1)","(0, 0)","(0, 0)","(0, 0)","(0, 1)","(1, 0)","(0, 0)","(0, 0)"
324,interactor,325,9.539234153966067,0.14847280296295393,0.335,45_bottom_l,False,,,3.8582586999982595,True,"[0.4834728029629539, 0.4834728029629539, 0.4834728029629539]",True,False,lighter,True,0.467616000038106,right,left,"(0, 0)","(0, 0)","(0, 0)","(1, 1)","(1, 0)","(0, 0)","(0, 0)","(0, 1)"
325,empty,326,9.316286849941916,0.13818445169507937,0.335,none_r,True,3.5746823999797925,right,3.8412172999815084,True,"[0.4731844516950794, 0.4731844516950794, 0.4731844516950794]",False,False,lighter,True,0.6327685000142083,left,down,"(0, 0)","(1, 0)","(0, 1)","(0, 0)","(0, 0)","(1, 0)","(0, 1)","(0, 0)"
326,empty,327,9.907429888131164,0.12229415361374425,-0.168,none_r,True,3.5739202999975532,left,3.858070000016596,True,"[-0.04570584638625576, -0.04570584638625576, -0.04570584638625576]",False,False,darker,True,0.4669034000253305,left,up,"(0, 1)","(1, 0)","(0, 0)","(0, 0)","(0, 1)","(1, 0)","(0, 0)","(0, 0)"
327,empty,328,9.417951060177572,0.10069641135786336,-0.168,none_l,True,3.575363100040704,right,3.8405948000145145,True,"[-0.06730358864213665, -0.06730358864213665, -0.06730358864213665]",False,False,darker,True,0.5006541999755427,right,up,"(0, 1)","(0, 0)","(0, 0)","(1, 0)","(0, 1)","(0, 0)","(0, 0)","(1, 0)"
328,interactor,329,9.270817510235785,0.1914654297085,-0.168,45_top_u,False,,,3.856828599993605,True,"[0.02346542970849999, 0.02346542970849999, 0.02346542970849999]",True,False,darker,True,0.46848550002323464,down,up,"(1, 1)","(0, 0)","(0, 0)","(0, 0)","(0, 1)","(0, 0)","(0, 0)","(1, 0)"
329,interactor,330,9.640940619142768,-0.14892899888752562,-0.335,45_bottom_d,True,3.5734016000060365,,3.839837900013663,True,"[-0.4839289988875256, -0.4839289988875256, -0.4839289988875256]",False,True,darker,True,0.4664932999876328,up,right,"(0, 0)","(0, 1)","(1, 0)","(0, 0)","(0, 0)","(1, 1)","(0, 0)","(0, 0)"
330,interactor,331,9.218093798489456,0.4775425456522552,0.0,45_bottom_d,False,,,3.8582568999845535,True,"[0.4775425456522552, 0.4775425456522552, 0.4775425456522552]",True,False,lighter,,0.5684980999794789,up,down,"(0, 0)","(0, 0)","(1, 1)","(0, 0)","(0, 0)","(1, 0)","(0, 1)","(0, 0)"
331,empty,332,9.763529984663498,0.004249994118672135,-0.335,none_u,False,,,3.8577663999749348,True,"[-0.33075000588132786, -0.33075000588132786, -0.33075000588132786]",True,True,darker,True,0.46751960000256076,down,up,"(1, 1)","(0, 0)","(0, 0)","(0, 0)","(1, 1)","(0, 0)","(0, 0)","(0, 0)"
