,trial_type,trial,ball_speed,ball_start_color,ball_color_change,interactor,bounce,bounce_moment,random_bounce_direction,target_onset,ball_change,target_color,abs_congruent,sim_congruent,response,accuracy,rt,start_pos,end_pos,abs_rfup,abs_rfright,abs_rfdown,abs_rfleft,sim_rfup,sim_rfright,sim_rfdown,sim_rfleft
0,empty,1,9.433553113895092,-0.33264079109413214,-0.168,none_l,False,,,3.8945566000184044,True,"[-0.5006407910941322, -0.5006407910941322, -0.5006407910941322]",True,True,,False,,right,left,"(0, 0)","(0, 0)","(0, 0)","(1, 1)","(0, 0)","(0, 0)","(0, 0)","(1, 1)"
1,interactor,2,9.927459765040688,0.3860707211628877,0.168,135_bottom_d,True,3.5822658999823034,,3.867072499997448,True,"[0.5540707211628877, 0.5540707211628877, 0.5540707211628877]",False,True,x,,,up,left,"(0, 0)","(0, 0)","(1, 0)","(0, 1)","(0, 0)","(0, 0)","(0, 0)","(1, 1)"
2,interactor,3,9.658046681599963,0.0032337489204250502,0.168,135_bottom_d,False,,,3.857871200016234,True,"[0.17123374892042506, 0.17123374892042506, 0.17123374892042506]",True,False,lighter,True,0.6508339999709278,up,down,"(0, 0)","(0, 0)","(1, 1)","(0, 0)","(0, 0)","(0, 0)","(0, 1)","(1, 0)"
3,empty,4,9.606193232885214,0.2691034280661274,0.0,none_d,True,3.5747472000075504,right,3.8413096999865957,True,"[0.2691034280661274, 0.2691034280661274, 0.2691034280661274]",False,False,lighter,,0.8332983000436798,up,left,"(0, 0)","(0, 0)","(1, 0)","(0, 1)","(0, 0)","(0, 0)","(1, 0)","(0, 1)"
4,empty,5,9.75556615061582,0.34194519072202423,0.335,none_u,False,,,3.8586024999967776,True,"[0.6769451907220243, 0.6769451907220243, 0.6769451907220243]",True,True,lighter,True,0.6664720000117086,down,up,"(1, 1)","(0, 0)","(0, 0)","(0, 0)","(1, 1)","(0, 0)","(0, 0)","(0, 0)"
5,empty,6,9.543654417028849,-0.12212611707455176,-0.168,none_u,False,,,3.859262799960561,True,"[-0.29012611707455177, -0.29012611707455177, -0.29012611707455177]",True,True,darker,True,0.6503402999951504,down,up,"(1, 1)","(0, 0)","(0, 0)","(0, 0)","(1, 1)","(0, 0)","(0, 0)","(0, 0)"
6,empty,7,9.502070014258779,0.3927974821395745,-0.168,none_d,False,,,3.857756800018251,True,"[0.22479748213957448, 0.22479748213957448, 0.22479748213957448]",True,True,lighter,False,0.5830470999935642,up,down,"(0, 0)","(0, 0)","(1, 1)","(0, 0)","(0, 0)","(0, 0)","(1, 1)","(0, 0)"
7,interactor,8,9.245285206954822,0.2475951664927425,0.335,135_bottom_d,False,,,3.8590047999750823,True,"[0.5825951664927425, 0.5825951664927425, 0.5825951664927425]",True,False,lighter,True,0.7331561000319198,up,down,"(0, 0)","(0, 0)","(1, 1)","(0, 0)","(0, 0)","(0, 0)","(0, 1)","(1, 0)"
8,empty,9,9.59799087003085,0.20432547254420128,-0.335,none_l,False,,,3.8584073000238277,True,"[-0.13067452745579874, -0.13067452745579874, -0.13067452745579874]",True,True,darker,True,0.7508753999718465,right,left,"(0, 0)","(0, 0)","(0, 0)","(1, 1)","(0, 0)","(0, 0)","(0, 0)","(1, 1)"
9,interactor,10,9.691763395183223,0.17993676631144592,0.335,135_bottom_r,False,,,3.8578330999589525,True,"[0.5149367663114459, 0.5149367663114459, 0.5149367663114459]",True,False,lighter,True,0.5502729000290856,left,right,"(0, 0)","(1, 1)","(0, 0)","(0, 0)","(1, 0)","(0, 1)","(0, 0)","(0, 0)"
10,empty,11,9.497454949662421,0.055642270775207836,0.335,none_d,True,3.575933600019198,right,3.8432954999734648,True,"[0.39064227077520786, 0.39064227077520786, 0.39064227077520786]",False,False,lighter,True,0.6162658000248484,up,left,"(0, 0)","(0, 0)","(1, 0)","(0, 1)","(0, 0)","(0, 0)","(1, 0)","(0, 1)"
11,interactor,12,9.721737185136355,0.1693875104351827,-0.168,135_bottom_d,True,3.575329300016165,,3.8407155000022613,True,"[0.0013875104351826761, 0.0013875104351826761, 0.0013875104351826761]",False,True,lighter,False,1.1175107000162825,up,left,"(0, 0)","(0, 0)","(1, 0)","(0, 1)","(0, 0)","(0, 0)","(0, 0)","(1, 1)"
12,interactor,13,9.701620527533928,-0.11523805717193122,0.0,135_top_u,True,3.574483499978669,,3.841040899977088,True,"[-0.11523805717193122, -0.11523805717193122, -0.11523805717193122]",False,True,darker,,1.0848140000016429,down,right,"(1, 0)","(0, 1)","(0, 0)","(0, 0)","(0, 0)","(1, 1)","(0, 0)","(0, 0)"
13,empty,14,9.3784842617129,0.3727111594091359,0.335,none_l,False,,,3.857079299981706,True,"[0.7077111594091359, 0.7077111594091359, 0.7077111594091359]",True,True,lighter,True,0.7340733000310138,right,left,"(0, 0)","(0, 0)","(0, 0)","(1, 1)","(0, 0)","(0, 0)","(0, 0)","(1, 1)"
14,interactor,15,9.234395611642745,-0.05334947767084261,0.0,45_bottom_l,True,3.574519799964037,,3.8421170999645256,True,"[-0.05334947767084261, -0.05334947767084261, -0.05334947767084261]",False,True,darker,,1.0489745000377297,right,up,"(0, 1)","(0, 0)","(0, 0)","(1, 0)","(1, 1)","(0, 0)","(0, 0)","(0, 0)"
15,empty,16,9.477257186324854,0.41969181132313993,0.0,none_u,True,3.5744320999947377,right,3.840653099992778,True,"[0.41969181132313993, 0.41969181132313993, 0.41969181132313993]",False,False,lighter,,0.618469700042624,down,right,"(1, 0)","(0, 1)","(0, 0)","(0, 0)","(1, 0)","(0, 1)","(0, 0)","(0, 0)"
16,empty,17,9.099047182971741,0.4448039126063008,0.0,none_l,True,3.575590199965518,left,3.8410583999939263,True,"[0.4448039126063008, 0.4448039126063008, 0.4448039126063008]",False,False,lighter,,0.5843032000120729,right,down,"(0, 0)","(0, 0)","(0, 1)","(1, 0)","(0, 0)","(0, 0)","(0, 1)","(1, 0)"
17,empty,18,9.538721596329847,0.04841506746712182,0.168,none_l,False,,,3.857529799977783,True,"[0.21641506746712183, 0.21641506746712183, 0.21641506746712183]",True,True,lighter,True,0.7003139000153169,right,left,"(0, 0)","(0, 0)","(0, 0)","(1, 1)","(0, 0)","(0, 0)","(0, 0)","(1, 1)"
18,empty,19,9.46287138174865,-0.06296644291598796,-0.335,none_d,True,3.5754313999786973,right,3.842032599961385,True,"[-0.397966442915988, -0.397966442915988, -0.397966442915988]",False,False,darker,True,0.6838274000328965,up,left,"(0, 0)","(0, 0)","(1, 0)","(0, 1)","(0, 0)","(0, 0)","(1, 0)","(0, 1)"
19,interactor,20,9.593809111139445,0.29215131575551934,0.335,135_top_u,True,3.5748017000150867,,3.8433986000018194,True,"[0.6271513157555193, 0.6271513157555193, 0.6271513157555193]",False,True,lighter,True,0.5493729000445455,down,right,"(1, 0)","(0, 1)","(0, 0)","(0, 0)","(0, 0)","(1, 1)","(0, 0)","(0, 0)"
20,empty,21,9.41094619542815,0.284708231172908,0.335,none_d,False,,,3.8594827999477275,True,"[0.6197082311729081, 0.6197082311729081, 0.6197082311729081]",True,True,darker,False,0.9662139000138268,up,down,"(0, 0)","(0, 0)","(1, 1)","(0, 0)","(0, 0)","(0, 0)","(1, 1)","(0, 0)"
21,interactor,22,9.791278487818419,0.18732749221962958,0.168,135_bottom_r,True,3.5742269000038505,,3.8406290999846533,True,"[0.35532749221962956, 0.35532749221962956, 0.35532749221962956]",False,True,lighter,True,0.667033999983687,left,up,"(0, 1)","(1, 0)","(0, 0)","(0, 0)","(1, 1)","(0, 0)","(0, 0)","(0, 0)"
22,empty,23,9.150879446251915,0.26296288457267153,0.335,none_l,False,,,3.8568721000337973,True,"[0.5979628845726715, 0.5979628845726715, 0.5979628845726715]",True,True,lighter,True,0.6672649999964051,right,left,"(0, 0)","(0, 0)","(0, 0)","(1, 1)","(0, 0)","(0, 0)","(0, 0)","(1, 1)"
23,interactor,24,9.72448318709165,0.20919893274494838,0.168,45_top_u,False,,,3.8573643999989145,True,"[0.3771989327449484, 0.3771989327449484, 0.3771989327449484]",True,False,darker,False,0.7012924000155181,down,up,"(1, 1)","(0, 0)","(0, 0)","(0, 0)","(0, 1)","(0, 0)","(0, 0)","(1, 0)"
24,interactor,25,9.719011718359944,0.3132927783424174,-0.168,45_top_r,False,,,3.858066599990707,True,"[0.1452927783424174, 0.1452927783424174, 0.1452927783424174]",True,False,lighter,False,0.5669172999914736,left,right,"(0, 0)","(1, 1)","(0, 0)","(0, 0)","(0, 0)","(0, 1)","(1, 0)","(0, 0)"
25,empty,26,9.825760554502178,0.04641978921588047,0.0,none_r,True,3.5730186999426223,right,3.857071399979759,True,"[0.04641978921588047, 0.04641978921588047, 0.04641978921588047]",False,False,lighter,,0.5501291999826208,left,down,"(0, 0)","(1, 0)","(0, 1)","(0, 0)","(0, 0)","(1, 0)","(0, 1)","(0, 0)"
26,interactor,27,9.356689658147447,0.3327393983480117,-0.168,45_bottom_d,True,3.573694600025192,,3.840171099989675,True,"[0.16473939834801168, 0.16473939834801168, 0.16473939834801168]",False,True,lighter,False,0.5181142000365071,up,right,"(0, 0)","(0, 1)","(1, 0)","(0, 0)","(0, 0)","(1, 1)","(0, 0)","(0, 0)"
27,empty,28,9.631888605760883,0.15151535279913564,-0.335,none_r,True,3.575844499981031,left,3.8411903999513015,True,"[-0.18348464720086438, -0.18348464720086438, -0.18348464720086438]",False,False,darker,True,0.634490700031165,left,up,"(0, 1)","(1, 0)","(0, 0)","(0, 0)","(0, 1)","(1, 0)","(0, 0)","(0, 0)"
28,interactor,29,9.354566312489965,0.17479000784429582,0.168,45_top_u,False,,,3.8576843999908306,True,"[0.3427900078442958, 0.3427900078442958, 0.3427900078442958]",True,False,lighter,True,0.9843318000202999,down,up,"(1, 1)","(0, 0)","(0, 0)","(0, 0)","(0, 1)","(0, 0)","(0, 0)","(1, 0)"
29,interactor,30,9.439030322714943,-0.04876743069173717,-0.335,45_bottom_d,False,,,3.857611099956557,True,"[-0.3837674306917372, -0.3837674306917372, -0.3837674306917372]",True,False,lighter,False,1.0014676000573672,up,down,"(0, 0)","(0, 0)","(1, 1)","(0, 0)","(0, 0)","(1, 0)","(0, 1)","(0, 0)"
30,interactor,31,9.213849764037906,0.025259531190923515,-0.168,45_top_u,False,,,3.8591652999748476,True,"[-0.14274046880907648, -0.14274046880907648, -0.14274046880907648]",True,False,darker,True,1.0830356000224128,down,up,"(1, 1)","(0, 0)","(0, 0)","(0, 0)","(0, 1)","(0, 0)","(0, 0)","(1, 0)"
31,interactor,32,9.53126262586967,0.3395416792536337,-0.168,135_bottom_r,False,,,3.857629399979487,True,"[0.1715416792536337, 0.1715416792536337, 0.1715416792536337]",True,False,darker,True,0.8503583999699913,left,right,"(0, 0)","(1, 1)","(0, 0)","(0, 0)","(1, 0)","(0, 1)","(0, 0)","(0, 0)"
32,empty,33,9.132865783007098,0.18779843523349904,-0.168,none_l,False,,,3.8586514000198804,True,"[0.01979843523349903, 0.01979843523349903, 0.01979843523349903]",True,True,lighter,False,0.8504813000326976,right,left,"(0, 0)","(0, 0)","(0, 0)","(1, 1)","(0, 0)","(0, 0)","(0, 0)","(1, 1)"
33,interactor,34,9.04711908269966,0.07410040296599055,-0.168,135_top_l,True,3.574364300002344,,3.840887699974701,True,"[-0.09389959703400946, -0.09389959703400946, -0.09389959703400946]",False,True,darker,True,1.3828595000086352,right,down,"(0, 0)","(0, 0)","(0, 1)","(1, 0)","(0, 0)","(0, 0)","(1, 1)","(0, 0)"
34,empty,35,9.981978678652771,0.2521872714885368,0.0,none_d,True,3.5727151000173762,left,3.8570035999873653,True,"[0.2521872714885368, 0.2521872714885368, 0.2521872714885368]",False,False,lighter,,0.6990909000160173,up,right,"(0, 0)","(0, 1)","(1, 0)","(0, 0)","(0, 0)","(0, 1)","(1, 0)","(0, 0)"
35,empty,36,9.3565267032832,0.322450241205902,0.335,none_r,True,3.5739469999680296,right,3.842185400018934,True,"[0.657450241205902, 0.657450241205902, 0.657450241205902]",False,False,lighter,True,0.699987499974668,left,down,"(0, 0)","(1, 0)","(0, 1)","(0, 0)","(0, 0)","(1, 0)","(0, 1)","(0, 0)"
36,interactor,37,9.324065390817866,0.1823119853667533,0.0,135_top_l,True,3.5728987000184134,,3.839309200004209,True,"[0.1823119853667533, 0.1823119853667533, 0.1823119853667533]",False,True,lighter,,0.6179926000186242,right,down,"(0, 0)","(0, 0)","(0, 1)","(1, 0)","(0, 0)","(0, 0)","(1, 1)","(0, 0)"
37,interactor,38,9.777485780896301,0.06103020214250267,0.0,45_bottom_d,False,,,3.85783240001183,True,"[0.06103020214250267, 0.06103020214250267, 0.06103020214250267]",True,False,lighter,,0.6678748999838717,up,down,"(0, 0)","(0, 0)","(1, 1)","(0, 0)","(0, 0)","(1, 0)","(0, 1)","(0, 0)"
38,interactor,39,9.729681237145657,-0.2693814021151275,0.335,135_bottom_r,True,3.574149899999611,,3.8418944000150077,True,"[0.06561859788487251, 0.06561859788487251, 0.06561859788487251]",False,True,lighter,True,0.5007953000022098,left,up,"(0, 1)","(1, 0)","(0, 0)","(0, 0)","(1, 1)","(0, 0)","(0, 0)","(0, 0)"
39,empty,40,9.55947765322164,-0.08926000075235685,0.0,none_r,False,,,3.8577479999512434,True,"[-0.08926000075235685, -0.08926000075235685, -0.08926000075235685]",True,True,lighter,,0.748542700021062,left,right,"(0, 0)","(1, 1)","(0, 0)","(0, 0)","(0, 0)","(1, 1)","(0, 0)","(0, 0)"
40,interactor,41,9.588056583405859,0.16345741525202645,-0.168,135_bottom_d,True,3.5762238999595866,,3.8426168999867514,True,"[-0.00454258474797356, -0.00454258474797356, -0.00454258474797356]",False,True,lighter,False,0.6327159999636933,up,left,"(0, 0)","(0, 0)","(1, 0)","(0, 1)","(0, 0)","(0, 0)","(0, 0)","(1, 1)"
41,empty,42,9.603713832190474,-0.02855232328897009,0.168,none_d,False,,,3.859757099999115,True,"[0.13944767671102992, 0.13944767671102992, 0.13944767671102992]",True,True,lighter,True,0.6154098000261001,up,down,"(0, 0)","(0, 0)","(1, 1)","(0, 0)","(0, 0)","(0, 0)","(1, 1)","(0, 0)"
42,empty,43,9.442304942057367,0.37302490094246515,-0.168,none_l,True,3.5746543999994174,left,3.8418272000271827,True,"[0.20502490094246514, 0.20502490094246514, 0.20502490094246514]",False,False,darker,True,0.8500114000053145,right,down,"(0, 0)","(0, 0)","(0, 1)","(1, 0)","(0, 0)","(0, 0)","(0, 1)","(1, 0)"
43,empty,44,9.596945134014927,0.2909652679781429,0.335,none_r,False,,,3.858143099991139,True,"[0.6259652679781429, 0.6259652679781429, 0.6259652679781429]",True,True,lighter,True,0.6323005000012927,left,right,"(0, 0)","(1, 1)","(0, 0)","(0, 0)","(0, 0)","(1, 1)","(0, 0)","(0, 0)"
44,empty,45,9.524669053806457,-0.12514562921688008,0.0,none_l,True,3.5740253999829292,left,3.840990700002294,True,"[-0.12514562921688008, -0.12514562921688008, -0.12514562921688008]",False,False,lighter,,0.8001225999905728,right,down,"(0, 0)","(0, 0)","(0, 1)","(1, 0)","(0, 0)","(0, 0)","(0, 1)","(1, 0)"
45,interactor,46,9.563116858788387,-0.04048973086734678,0.168,45_bottom_d,False,,,3.8576010999968275,True,"[0.12751026913265323, 0.12751026913265323, 0.12751026913265323]",True,False,lighter,True,0.6014072999823838,up,down,"(0, 0)","(0, 0)","(1, 1)","(0, 0)","(0, 0)","(1, 0)","(0, 1)","(0, 0)"
46,interactor,47,9.319303230233936,-0.09271101812463711,0.335,135_bottom_r,True,3.574177700036671,,3.8405725000193343,True,"[0.2422889818753629, 0.2422889818753629, 0.2422889818753629]",False,True,lighter,True,0.5341094000032172,left,up,"(0, 1)","(1, 0)","(0, 0)","(0, 0)","(1, 1)","(0, 0)","(0, 0)","(0, 0)"
47,interactor,48,10.044378710267601,-0.2139956661000584,0.0,135_top_u,False,,,3.8589097000076436,True,"[-0.2139956661000584, -0.2139956661000584, -0.2139956661000584]",True,False,darker,,0.7670933000044897,down,up,"(1, 1)","(0, 0)","(0, 0)","(0, 0)","(0, 1)","(1, 0)","(0, 0)","(0, 0)"
48,empty,49,9.205337223168803,0.02093517336305295,-0.168,none_r,False,,,3.857100100023672,True,"[-0.14706482663694706, -0.14706482663694706, -0.14706482663694706]",True,True,lighter,False,0.9503962000017054,left,right,"(0, 0)","(1, 1)","(0, 0)","(0, 0)","(0, 0)","(1, 1)","(0, 0)","(0, 0)"
49,empty,50,9.227688668007314,0.2177267444239338,-0.168,none_r,True,3.5741029999917373,right,3.8402909000287764,True,"[0.049726744423933794, 0.049726744423933794, 0.049726744423933794]",False,False,darker,True,0.9007283999817446,left,down,"(0, 0)","(1, 0)","(0, 1)","(0, 0)","(0, 0)","(1, 0)","(0, 1)","(0, 0)"
50,empty,51,10.187029861218164,0.5326220447606348,0.168,none_d,True,3.5751122999936342,right,3.858347599976696,True,"[0.7006220447606348, 0.7006220447606348, 0.7006220447606348]",False,False,lighter,True,0.6661967000109144,up,left,"(0, 0)","(0, 0)","(1, 0)","(0, 1)","(0, 0)","(0, 0)","(1, 0)","(0, 1)"
51,empty,52,9.613777056200625,0.03667445112985748,0.168,none_r,True,3.574354099982884,right,3.8414312999811955,True,"[0.2046744511298575, 0.2046744511298575, 0.2046744511298575]",False,False,darker,False,0.9347437000251375,left,down,"(0, 0)","(1, 0)","(0, 1)","(0, 0)","(0, 0)","(1, 0)","(0, 1)","(0, 0)"
52,empty,53,9.536859803245346,0.36152764184934405,0.0,none_r,False,,,3.8578502000309527,True,"[0.36152764184934405, 0.36152764184934405, 0.36152764184934405]",True,True,lighter,,0.7170979999937117,left,right,"(0, 0)","(1, 1)","(0, 0)","(0, 0)","(0, 0)","(1, 1)","(0, 0)","(0, 0)"
53,empty,54,9.835973389811395,0.25050454735497973,0.0,none_u,False,,,3.8575093999970704,True,"[0.25050454735497973, 0.25050454735497973, 0.25050454735497973]",True,True,darker,,0.7166400999994949,down,up,"(1, 1)","(0, 0)","(0, 0)","(0, 0)","(1, 1)","(0, 0)","(0, 0)","(0, 0)"
54,interactor,55,9.768403190925506,0.09126496632639344,-0.335,135_top_u,True,3.573552899993956,,3.840151899959892,True,"[-0.24373503367360658, -0.24373503367360658, -0.24373503367360658]",False,True,darker,True,0.6498322000261396,down,right,"(1, 0)","(0, 1)","(0, 0)","(0, 0)","(0, 0)","(1, 1)","(0, 0)","(0, 0)"
55,empty,56,8.936332647159983,-0.04724400344565152,-0.335,none_l,False,,,3.857905699987896,True,"[-0.38224400344565157, -0.38224400344565157, -0.38224400344565157]",True,True,darker,True,0.8498260999913327,right,left,"(0, 0)","(0, 0)","(0, 0)","(1, 1)","(0, 0)","(0, 0)","(0, 0)","(1, 1)"
56,interactor,57,9.58005900169734,-0.01907116579844001,-0.335,135_bottom_d,True,3.5737247000215575,,3.8409031000337563,True,"[-0.35407116579844, -0.35407116579844, -0.35407116579844]",False,True,darker,True,0.733955200004857,up,left,"(0, 0)","(0, 0)","(1, 0)","(0, 1)","(0, 0)","(0, 0)","(0, 0)","(1, 1)"
57,interactor,58,9.591363447749094,0.2633457613277611,-0.335,45_bottom_d,True,3.573314300039783,,3.8413921000319533,True,"[-0.07165423867223891, -0.07165423867223891, -0.07165423867223891]",False,True,darker,True,0.8173894999781623,up,right,"(0, 0)","(0, 1)","(1, 0)","(0, 0)","(0, 0)","(1, 1)","(0, 0)","(0, 0)"
58,empty,59,9.177871643942156,0.25858873753401124,-0.168,none_l,True,3.5748507999815047,left,3.84296679997351,True,"[0.09058873753401123, 0.09058873753401123, 0.09058873753401123]",False,False,lighter,False,1.0324180000461638,right,down,"(0, 0)","(0, 0)","(0, 1)","(1, 0)","(0, 0)","(0, 0)","(0, 1)","(1, 0)"
59,empty,60,9.261942462178439,0.2097107393981254,-0.335,none_l,True,3.574239099980332,left,3.840459599974565,True,"[-0.12528926060187462, -0.12528926060187462, -0.12528926060187462]",False,False,darker,True,0.9173928999807686,right,down,"(0, 0)","(0, 0)","(0, 1)","(1, 0)","(0, 0)","(0, 0)","(0, 1)","(1, 0)"
60,empty,61,9.570591504978676,0.3927128324981489,0.168,none_r,False,,,3.8586865999968722,True,"[0.560712832498149, 0.560712832498149, 0.560712832498149]",True,True,lighter,True,0.5496011999784969,left,right,"(0, 0)","(1, 1)","(0, 0)","(0, 0)","(0, 0)","(1, 1)","(0, 0)","(0, 0)"
61,interactor,62,9.403965230910508,0.4001721186266253,-0.168,135_top_l,True,3.5749972000485286,,3.841363400046248,True,"[0.23217211862662526, 0.23217211862662526, 0.23217211862662526]",False,True,darker,True,1.0684359999722801,right,down,"(0, 0)","(0, 0)","(0, 1)","(1, 0)","(0, 0)","(0, 0)","(1, 1)","(0, 0)"
62,interactor,63,9.389265682265645,0.14294900901434612,-0.335,135_top_u,False,,,3.8599063999718055,True,"[-0.1920509909856539, -0.1920509909856539, -0.1920509909856539]",True,False,darker,True,0.7661750999977812,down,up,"(1, 1)","(0, 0)","(0, 0)","(0, 0)","(0, 1)","(1, 0)","(0, 0)","(0, 0)"
63,interactor,64,9.375006662307763,0.17387857775338394,-0.335,45_top_u,True,3.573951099999249,,3.84049050003523,True,"[-0.16112142224661608, -0.16112142224661608, -0.16112142224661608]",False,True,darker,True,0.7850890000117943,down,left,"(1, 0)","(0, 0)","(0, 0)","(0, 1)","(0, 0)","(0, 0)","(0, 0)","(1, 1)"
64,interactor,65,9.23838144364995,0.05748411869822308,0.335,135_top_l,True,3.5744956000125967,,3.841814500046894,True,"[0.3924841186982231, 0.3924841186982231, 0.3924841186982231]",False,True,lighter,True,0.9010812999913469,right,down,"(0, 0)","(0, 0)","(0, 1)","(1, 0)","(0, 0)","(0, 0)","(1, 1)","(0, 0)"
65,empty,66,9.34940599166054,0.28825166399470936,-0.335,none_r,True,3.5745496999588795,right,3.8401448999647982,True,"[-0.04674833600529066, -0.04674833600529066, -0.04674833600529066]",False,False,darker,True,0.5669810000108555,left,down,"(0, 0)","(1, 0)","(0, 1)","(0, 0)","(0, 0)","(1, 0)","(0, 1)","(0, 0)"
66,interactor,67,9.640910029626134,0.039555860721898914,0.0,45_bottom_l,True,3.5734928000019863,,3.8421978999977,True,"[0.039555860721898914, 0.039555860721898914, 0.039555860721898914]",False,True,darker,,0.7491157000185922,right,up,"(0, 1)","(0, 0)","(0, 0)","(1, 0)","(1, 1)","(0, 0)","(0, 0)","(0, 0)"
67,empty,68,9.498381153222189,0.24306158850961698,0.168,none_r,False,,,3.856542899971828,True,"[0.411061588509617, 0.411061588509617, 0.411061588509617]",True,True,lighter,True,0.651396700006444,left,right,"(0, 0)","(1, 1)","(0, 0)","(0, 0)","(0, 0)","(1, 1)","(0, 0)","(0, 0)"
68,empty,69,9.336828230066745,0.1168055279902368,0.168,none_l,True,3.5738673000014387,left,3.840747000009287,True,"[0.28480552799023684, 0.28480552799023684, 0.28480552799023684]",False,False,lighter,True,0.9676010999828577,right,down,"(0, 0)","(0, 0)","(0, 1)","(1, 0)","(0, 0)","(0, 0)","(0, 1)","(1, 0)"
69,interactor,70,9.338252025899797,0.21047442322543963,-0.335,135_top_u,False,,,3.8575136000290513,True,"[-0.12452557677456039, -0.12452557677456039, -0.12452557677456039]",True,False,darker,True,0.6506167000043206,down,up,"(1, 1)","(0, 0)","(0, 0)","(0, 0)","(0, 1)","(1, 0)","(0, 0)","(0, 0)"
70,empty,71,9.575398712224018,-0.24174236848783134,0.335,none_r,False,,,3.858204399992246,True,"[0.09325763151216868, 0.09325763151216868, 0.09325763151216868]",True,True,lighter,True,0.6004157999996096,left,right,"(0, 0)","(1, 1)","(0, 0)","(0, 0)","(0, 0)","(1, 1)","(0, 0)","(0, 0)"
71,empty,72,9.784735536978069,-0.0509292066364985,0.168,none_u,True,3.575054500019178,right,3.8401543999789283,True,"[0.11707079336350151, 0.11707079336350151, 0.11707079336350151]",False,False,lighter,True,0.601325600000564,down,right,"(1, 0)","(0, 1)","(0, 0)","(0, 0)","(1, 0)","(0, 1)","(0, 0)","(0, 0)"
72,empty,73,9.537411079542403,0.09111343200247177,-0.335,none_d,True,3.575578599993605,right,3.8425461999722756,True,"[-0.24388656799752825, -0.24388656799752825, -0.24388656799752825]",False,False,darker,True,0.9664463000372052,up,left,"(0, 0)","(0, 0)","(1, 0)","(0, 1)","(0, 0)","(0, 0)","(1, 0)","(0, 1)"
73,empty,74,9.239259949799814,0.189897838345755,-0.335,none_r,False,,,3.8560283999540843,True,"[-0.14510216165424503, -0.14510216165424503, -0.14510216165424503]",True,True,darker,True,0.7008622000575997,left,right,"(0, 0)","(1, 1)","(0, 0)","(0, 0)","(0, 0)","(1, 1)","(0, 0)","(0, 0)"
74,empty,75,8.981936352092946,0.06101177179411313,-0.168,none_d,True,3.575463299988769,right,3.8419662000378594,True,"[-0.10698822820588688, -0.10698822820588688, -0.10698822820588688]",False,False,lighter,False,0.8838665999937803,up,left,"(0, 0)","(0, 0)","(1, 0)","(0, 1)","(0, 0)","(0, 0)","(1, 0)","(0, 1)"
75,interactor,76,9.747088484761882,0.16680080999557226,-0.168,45_top_u,True,3.5734374000458047,,3.8397263000370003,True,"[-0.0011991900044277526, -0.0011991900044277526, -0.0011991900044277526]",False,True,lighter,False,1.0671948000090197,down,left,"(1, 0)","(0, 0)","(0, 0)","(0, 1)","(0, 0)","(0, 0)","(0, 0)","(1, 1)"
76,empty,77,9.823670977176972,0.47492832927323536,0.0,none_l,True,3.575490399962291,left,3.8581141000031494,True,"[0.47492832927323536, 0.47492832927323536, 0.47492832927323536]",False,False,lighter,,0.8167080999701284,right,down,"(0, 0)","(0, 0)","(0, 1)","(1, 0)","(0, 0)","(0, 0)","(0, 1)","(1, 0)"
77,empty,78,9.712801304715448,0.2875230972323033,-0.168,none_l,True,3.5736373999970965,left,3.841743899974972,True,"[0.11952309723230328, 0.11952309723230328, 0.11952309723230328]",False,False,darker,True,0.8834453000454232,right,down,"(0, 0)","(0, 0)","(0, 1)","(1, 0)","(0, 0)","(0, 0)","(0, 1)","(1, 0)"
78,interactor,79,9.739832673346395,-0.10574377018606015,0.168,135_bottom_r,False,,,3.8585684000281617,True,"[0.062256229813939856, 0.062256229813939856, 0.062256229813939856]",True,False,lighter,True,0.7327035000198521,left,right,"(0, 0)","(1, 1)","(0, 0)","(0, 0)","(1, 0)","(0, 1)","(0, 0)","(0, 0)"
79,interactor,80,9.322965404194374,0.16458229051433074,0.335,135_top_l,False,,,3.857814699993469,True,"[0.4995822905143308, 0.4995822905143308, 0.4995822905143308]",True,False,lighter,True,0.5851585000054911,right,left,"(0, 0)","(0, 0)","(0, 0)","(1, 1)","(0, 0)","(0, 0)","(1, 0)","(0, 1)"
80,empty,81,9.03126497703359,0.5737255512311827,0.335,none_l,False,,,3.858053799951449,True,"[0.9087255512311827, 0.9087255512311827, 0.9087255512311827]",True,True,lighter,True,0.7015792000456713,right,left,"(0, 0)","(0, 0)","(0, 0)","(1, 1)","(0, 0)","(0, 0)","(0, 0)","(1, 1)"
81,interactor,82,9.53381414991606,0.37120745717244097,0.168,45_top_r,True,3.5727492999867536,,3.84013359999517,True,"[0.539207457172441, 0.539207457172441, 0.539207457172441]",False,True,lighter,True,0.733669999986887,left,down,"(0, 0)","(1, 0)","(0, 1)","(0, 0)","(0, 0)","(0, 0)","(1, 1)","(0, 0)"
82,interactor,83,9.472720757113727,0.3053801340367206,0.0,135_top_l,False,,,3.857148299983237,True,"[0.3053801340367206, 0.3053801340367206, 0.3053801340367206]",True,False,lighter,,0.7517752000130713,right,left,"(0, 0)","(0, 0)","(0, 0)","(1, 1)","(0, 0)","(0, 0)","(1, 0)","(0, 1)"
83,interactor,84,9.426984674533475,0.19197232950163126,-0.168,135_top_l,False,,,3.8584174000425264,True,"[0.02397232950163125, 0.02397232950163125, 0.02397232950163125]",True,False,darker,True,1.3014716999605298,right,left,"(0, 0)","(0, 0)","(0, 0)","(1, 1)","(0, 0)","(0, 0)","(1, 0)","(0, 1)"
84,interactor,85,8.873902200607482,0.2097142817951072,-0.335,45_top_r,False,,,3.8577255999553017,True,"[-0.12528571820489282, -0.12528571820489282, -0.12528571820489282]",True,False,darker,True,0.598423500021454,left,right,"(0, 0)","(1, 1)","(0, 0)","(0, 0)","(0, 0)","(0, 1)","(1, 0)","(0, 0)"
85,interactor,86,9.306980259245027,0.11622470594600351,-0.168,45_top_r,True,3.573788399982732,,3.841485399985686,True,"[-0.0517752940539965, -0.0517752940539965, -0.0517752940539965]",False,True,darker,True,0.8346194999758154,left,down,"(0, 0)","(1, 0)","(0, 1)","(0, 0)","(0, 0)","(0, 0)","(1, 1)","(0, 0)"
86,interactor,87,9.441761483397705,-0.03664110367118567,0.335,45_top_r,True,3.573994299978949,,3.84044110000832,True,"[0.29835889632881435, 0.29835889632881435, 0.29835889632881435]",False,True,lighter,True,0.6853485999745317,left,down,"(0, 0)","(1, 0)","(0, 1)","(0, 0)","(0, 0)","(0, 0)","(1, 1)","(0, 0)"
87,empty,88,9.202470089045258,-0.10399512027899552,0.0,none_u,True,3.573700100008864,right,3.8408342000329867,True,"[-0.10399512027899552, -0.10399512027899552, -0.10399512027899552]",False,False,lighter,,0.9499568999744952,down,right,"(1, 0)","(0, 1)","(0, 0)","(0, 0)","(1, 0)","(0, 1)","(0, 0)","(0, 0)"
88,empty,89,9.5803093203376,0.34328511324919575,0.335,none_u,False,,,3.8577880000229925,True,"[0.6782851132491958, 0.6782851132491958, 0.6782851132491958]",True,True,lighter,True,0.6335339000215754,down,up,"(1, 1)","(0, 0)","(0, 0)","(0, 0)","(1, 1)","(0, 0)","(0, 0)","(0, 0)"
89,empty,90,9.490783814554229,0.12235408685298793,0.0,none_r,True,3.5739889999968,right,3.840929400001187,True,"[0.12235408685298793, 0.12235408685298793, 0.12235408685298793]",False,False,darker,,0.850989300000947,left,down,"(0, 0)","(1, 0)","(0, 1)","(0, 0)","(0, 0)","(1, 0)","(0, 1)","(0, 0)"
90,interactor,91,9.448069306037386,0.22399888445428706,-0.335,135_top_u,False,,,3.859510499984026,True,"[-0.11100111554571296, -0.11100111554571296, -0.11100111554571296]",True,False,darker,True,0.71705659996951,down,up,"(1, 1)","(0, 0)","(0, 0)","(0, 0)","(0, 1)","(1, 0)","(0, 0)","(0, 0)"
91,empty,92,9.74956436453616,0.34875149189185384,0.335,none_u,False,,,3.857808800006751,True,"[0.6837514918918539, 0.6837514918918539, 0.6837514918918539]",True,True,lighter,True,0.63321309996536,down,up,"(1, 1)","(0, 0)","(0, 0)","(0, 0)","(1, 1)","(0, 0)","(0, 0)","(0, 0)"
92,empty,93,9.980036013896965,0.24409669475413337,-0.335,none_d,False,,,3.858593499986455,True,"[-0.09090330524586665, -0.09090330524586665, -0.09090330524586665]",True,True,lighter,False,0.8662582999677397,up,down,"(0, 0)","(0, 0)","(1, 1)","(0, 0)","(0, 0)","(0, 0)","(1, 1)","(0, 0)"
93,interactor,94,9.654701589195955,0.12534418411245157,-0.168,45_top_r,False,,,3.8586430000141263,True,"[-0.04265581588754844, -0.04265581588754844, -0.04265581588754844]",True,False,darker,True,0.6007376000052318,left,right,"(0, 0)","(1, 1)","(0, 0)","(0, 0)","(0, 0)","(0, 1)","(1, 0)","(0, 0)"
94,interactor,95,9.682897170746864,0.2843139076981347,0.335,45_top_u,True,3.5740398000343703,,3.84128650004277,True,"[0.6193139076981347, 0.6193139076981347, 0.6193139076981347]",False,True,lighter,True,0.699759199982509,down,left,"(1, 0)","(0, 0)","(0, 0)","(0, 1)","(0, 0)","(0, 0)","(0, 0)","(1, 1)"
95,empty,96,9.670859489966336,0.2730606192959899,0.168,none_d,False,,,3.8568660000455566,True,"[0.44106061929598994, 0.44106061929598994, 0.44106061929598994]",True,True,lighter,True,0.5669393999851309,up,down,"(0, 0)","(0, 0)","(1, 1)","(0, 0)","(0, 0)","(0, 0)","(1, 1)","(0, 0)"
96,interactor,97,9.691612921624479,0.4081117950538067,-0.335,135_bottom_d,False,,,3.857650299964007,True,"[0.07311179505380666, 0.07311179505380666, 0.07311179505380666]",True,False,lighter,False,0.5012170000118203,up,down,"(0, 0)","(0, 0)","(1, 1)","(0, 0)","(0, 0)","(0, 0)","(0, 1)","(1, 0)"
97,empty,98,9.837636808768245,0.2721653872666191,0.168,none_d,True,3.5761665999889374,right,3.8597357000107877,True,"[0.44016538726661913, 0.44016538726661913, 0.44016538726661913]",False,False,lighter,True,0.8494386000093073,up,left,"(0, 0)","(0, 0)","(1, 0)","(0, 1)","(0, 0)","(0, 0)","(1, 0)","(0, 1)"
98,interactor,99,9.385604535464042,0.10943534478999123,0.0,45_bottom_d,True,3.5732126999646425,,3.84077690000413,True,"[0.10943534478999123, 0.10943534478999123, 0.10943534478999123]",False,True,lighter,,0.46728599997004494,up,right,"(0, 0)","(0, 1)","(1, 0)","(0, 0)","(0, 0)","(1, 1)","(0, 0)","(0, 0)"
99,interactor,100,9.601945671606071,0.13828444486909414,0.0,135_top_u,True,3.573706900002435,,3.8420029999688268,True,"[0.13828444486909414, 0.13828444486909414, 0.13828444486909414]",False,True,lighter,,0.5832941000116989,down,right,"(1, 0)","(0, 1)","(0, 0)","(0, 0)","(0, 0)","(1, 1)","(0, 0)","(0, 0)"
100,empty,101,9.361378028597922,0.16369450978042416,0.335,none_r,True,3.575466200010851,left,3.842573000001721,True,"[0.4986945097804242, 0.4986945097804242, 0.4986945097804242]",False,False,lighter,True,0.8661102000041865,left,up,"(0, 1)","(1, 0)","(0, 0)","(0, 0)","(0, 1)","(1, 0)","(0, 0)","(0, 0)"
101,interactor,102,9.763769781838157,-0.07550793170144687,0.335,135_top_u,True,3.5749645000323653,,3.840505200030748,True,"[0.25949206829855315, 0.25949206829855315, 0.25949206829855315]",False,True,lighter,True,0.43499359994893894,down,right,"(1, 0)","(0, 1)","(0, 0)","(0, 0)","(0, 0)","(1, 1)","(0, 0)","(0, 0)"
102,empty,103,9.852096842362474,0.2822105804550007,0.0,none_l,False,,,3.8592899999930523,True,"[0.2822105804550007, 0.2822105804550007, 0.2822105804550007]",True,True,lighter,,1.182429799984675,right,left,"(0, 0)","(0, 0)","(0, 0)","(1, 1)","(0, 0)","(0, 0)","(0, 0)","(1, 1)"
103,empty,104,9.424319774109103,0.13133929168618735,0.168,none_l,False,,,3.857915000000503,True,"[0.29933929168618734, 0.29933929168618734, 0.29933929168618734]",True,True,lighter,True,0.7673792999703437,right,left,"(0, 0)","(0, 0)","(0, 0)","(1, 1)","(0, 0)","(0, 0)","(0, 0)","(1, 1)"
104,interactor,105,9.35900813502887,0.2076816520765478,0.0,135_top_l,True,3.573549999971874,,3.84229169995524,True,"[0.2076816520765478, 0.2076816520765478, 0.2076816520765478]",False,True,lighter,,0.9002602000255138,right,down,"(0, 0)","(0, 0)","(0, 1)","(1, 0)","(0, 0)","(0, 0)","(1, 1)","(0, 0)"
105,interactor,106,9.729272312378487,0.13189607915852486,0.335,45_top_u,True,3.5757877999567427,,3.8408864999655634,True,"[0.4668960791585249, 0.4668960791585249, 0.4668960791585249]",False,True,darker,False,0.9678428000188433,down,left,"(1, 0)","(0, 0)","(0, 0)","(0, 1)","(0, 0)","(0, 0)","(0, 0)","(1, 1)"
106,interactor,107,9.518106300769086,-0.17308429332822947,0.0,45_top_u,True,3.5743244999903254,,3.8417503999662586,True,"[-0.17308429332822947, -0.17308429332822947, -0.17308429332822947]",False,True,darker,,0.9992208000039682,down,left,"(1, 0)","(0, 0)","(0, 0)","(0, 1)","(0, 0)","(0, 0)","(0, 0)","(1, 1)"
107,empty,108,9.772164819052888,0.07054239444507111,0.168,none_r,True,3.574506599979941,right,3.8405726000200957,True,"[0.23854239444507114, 0.23854239444507114, 0.23854239444507114]",False,False,lighter,True,0.668928999977652,left,down,"(0, 0)","(1, 0)","(0, 1)","(0, 0)","(0, 0)","(1, 0)","(0, 1)","(0, 0)"
108,interactor,109,9.272948284872902,-0.1288258622468975,-0.335,45_top_r,True,3.574994499969762,,3.8414519999641925,True,"[-0.4638258622468975, -0.4638258622468975, -0.4638258622468975]",False,True,darker,True,0.7167361000319943,left,down,"(0, 0)","(1, 0)","(0, 1)","(0, 0)","(0, 0)","(0, 0)","(1, 1)","(0, 0)"
109,empty,110,9.573055443942271,0.2168108011715269,0.335,none_d,True,3.5739495000452735,right,3.8413180999923497,True,"[0.5518108011715269, 0.5518108011715269, 0.5518108011715269]",False,False,lighter,True,0.5500922000501305,up,left,"(0, 0)","(0, 0)","(1, 0)","(0, 1)","(0, 0)","(0, 0)","(1, 0)","(0, 1)"
110,interactor,111,9.4987702164901,-0.07177422385999757,-0.168,135_bottom_d,False,,,3.8596423999988474,True,"[-0.23977422385999758, -0.23977422385999758, -0.23977422385999758]",True,False,darker,True,0.749663700000383,up,down,"(0, 0)","(0, 0)","(1, 1)","(0, 0)","(0, 0)","(0, 0)","(0, 1)","(1, 0)"
111,empty,112,10.024493541086674,0.3118259723400433,-0.168,none_r,False,,,3.8578933000098914,True,"[0.14382597234004327, 0.14382597234004327, 0.14382597234004327]",True,True,lighter,False,0.80194399994798,left,right,"(0, 0)","(1, 1)","(0, 0)","(0, 0)","(0, 0)","(1, 1)","(0, 0)","(0, 0)"
112,empty,113,9.66459065810704,0.13151461832304523,0.168,none_r,False,,,3.8575139999738894,True,"[0.29951461832304527, 0.29951461832304527, 0.29951461832304527]",True,True,lighter,True,0.500164000026416,left,right,"(0, 0)","(1, 1)","(0, 0)","(0, 0)","(0, 0)","(1, 1)","(0, 0)","(0, 0)"
113,empty,114,9.713482521308292,-0.00012087972286886628,0.335,none_d,False,,,3.858509599987883,True,"[0.3348791202771312, 0.3348791202771312, 0.3348791202771312]",True,True,lighter,True,0.4664825000218116,up,down,"(0, 0)","(0, 0)","(1, 1)","(0, 0)","(0, 0)","(0, 0)","(1, 1)","(0, 0)"
114,empty,115,9.72380635103185,0.3412720012884074,-0.168,none_r,True,3.574495700013358,right,3.8405814000288956,True,"[0.1732720012884074, 0.1732720012884074, 0.1732720012884074]",False,False,lighter,False,0.6849974999786355,left,down,"(0, 0)","(1, 0)","(0, 1)","(0, 0)","(0, 0)","(1, 0)","(0, 1)","(0, 0)"
115,empty,116,9.726160573268448,0.4677999142870022,-0.335,none_l,True,3.574543899972923,left,3.8406638999585994,True,"[0.13279991428700216, 0.13279991428700216, 0.13279991428700216]",False,False,darker,True,0.6015123000252061,right,down,"(0, 0)","(0, 0)","(0, 1)","(1, 0)","(0, 0)","(0, 0)","(0, 1)","(1, 0)"
116,interactor,117,9.862035394986032,0.417055053386147,-0.335,45_top_u,False,,,3.8582470000255853,True,"[0.08205505338614699, 0.08205505338614699, 0.08205505338614699]",True,False,darker,True,0.7679423000081442,down,up,"(1, 1)","(0, 0)","(0, 0)","(0, 0)","(0, 1)","(0, 0)","(0, 0)","(1, 0)"
117,interactor,118,9.298856310993154,0.028807203550861096,0.168,135_top_l,False,,,3.858268100011628,True,"[0.19680720355086112, 0.19680720355086112, 0.19680720355086112]",True,False,lighter,True,0.48389630002202466,right,left,"(0, 0)","(0, 0)","(0, 0)","(1, 1)","(0, 0)","(0, 0)","(1, 0)","(0, 1)"
118,interactor,119,9.97886448721306,0.047253229373779765,0.335,45_top_r,True,3.5740409999853,,3.857526700012386,True,"[0.3822532293737798, 0.3822532293737798, 0.3822532293737798]",False,True,lighter,True,0.5180747999693267,left,down,"(0, 0)","(1, 0)","(0, 1)","(0, 0)","(0, 0)","(0, 0)","(1, 1)","(0, 0)"
119,empty,120,9.838511694746702,0.1606807404785789,-0.168,none_u,True,3.57520530000329,left,3.8576693999930285,True,"[-0.007319259521421123, -0.007319259521421123, -0.007319259521421123]",False,False,lighter,False,0.7173220000113361,down,left,"(1, 0)","(0, 0)","(0, 0)","(0, 1)","(1, 0)","(0, 0)","(0, 0)","(0, 1)"
120,empty,121,9.262010767813008,0.20953873969272557,0.168,none_d,True,3.5743932999903336,left,3.842373099992983,True,"[0.37753873969272556, 0.37753873969272556, 0.37753873969272556]",False,False,lighter,True,0.41544880002038553,up,right,"(0, 0)","(0, 1)","(1, 0)","(0, 0)","(0, 0)","(0, 1)","(1, 0)","(0, 0)"
121,interactor,122,9.3240026882216,-0.05189126938338079,0.168,135_top_l,False,,,3.859062100003939,True,"[0.11610873061661922, 0.11610873061661922, 0.11610873061661922]",True,False,lighter,True,0.6509636999689974,right,left,"(0, 0)","(0, 0)","(0, 0)","(1, 1)","(0, 0)","(0, 0)","(1, 0)","(0, 1)"
122,interactor,123,9.741968109256533,0.09505118549357337,-0.335,135_bottom_d,True,3.5735441999859177,,3.8400353000033647,True,"[-0.23994881450642663, -0.23994881450642663, -0.23994881450642663]",False,True,darker,True,0.7341779000125825,up,left,"(0, 0)","(0, 0)","(1, 0)","(0, 1)","(0, 0)","(0, 0)","(0, 0)","(1, 1)"
123,empty,124,9.532914883333607,0.48294852562087587,0.168,none_r,False,,,3.858796899963636,True,"[0.6509485256208759, 0.6509485256208759, 0.6509485256208759]",True,True,lighter,True,1.0005676000146195,left,right,"(0, 0)","(1, 1)","(0, 0)","(0, 0)","(0, 0)","(1, 1)","(0, 0)","(0, 0)"
124,interactor,125,9.621438343122312,0.030881801507917736,-0.168,135_bottom_d,True,3.5761706000193954,,3.8428050000220537,True,"[-0.1371181984920823, -0.1371181984920823, -0.1371181984920823]",False,True,darker,True,0.6162512999726459,up,left,"(0, 0)","(0, 0)","(1, 0)","(0, 1)","(0, 0)","(0, 0)","(0, 0)","(1, 1)"
125,empty,126,9.135871970084619,0.08326133248115722,0.335,none_l,True,3.5764986000140198,right,3.8434985000058077,True,"[0.41826133248115727, 0.41826133248115727, 0.41826133248115727]",False,False,lighter,True,0.8161152999964543,right,up,"(0, 1)","(0, 0)","(0, 0)","(1, 0)","(0, 1)","(0, 0)","(0, 0)","(1, 0)"
126,empty,127,9.462981909090333,0.23020433454341135,0.168,none_u,True,3.5733691999921575,right,3.841440699994564,True,"[0.39820433454341136, 0.39820433454341136, 0.39820433454341136]",False,False,lighter,True,0.6164416000247002,down,right,"(1, 0)","(0, 1)","(0, 0)","(0, 0)","(1, 0)","(0, 1)","(0, 0)","(0, 0)"
127,interactor,128,9.934840886116021,0.2119630282607478,0.335,135_top_l,True,3.5728370000142604,,3.857305000012275,True,"[0.5469630282607478, 0.5469630282607478, 0.5469630282607478]",False,True,lighter,True,0.8512808000086807,right,down,"(0, 0)","(0, 0)","(0, 1)","(1, 0)","(0, 0)","(0, 0)","(1, 1)","(0, 0)"
128,empty,129,9.749611623370363,0.016482113553609318,0.0,none_l,False,,,3.855866600002628,True,"[0.016482113553609318, 0.016482113553609318, 0.016482113553609318]",True,True,darker,,0.7172172999707982,right,left,"(0, 0)","(0, 0)","(0, 0)","(1, 1)","(0, 0)","(0, 0)","(0, 0)","(1, 1)"
129,interactor,130,9.474722667559842,0.15639025838039072,-0.335,45_top_u,False,,,3.857641299953684,True,"[-0.1786097416196093, -0.1786097416196093, -0.1786097416196093]",True,False,darker,True,0.668427900003735,down,up,"(1, 1)","(0, 0)","(0, 0)","(0, 0)","(0, 1)","(0, 0)","(0, 0)","(1, 0)"
130,interactor,131,9.252483096993547,-0.051858465275043564,-0.168,45_bottom_d,False,,,3.859667200013064,True,"[-0.21985846527504357, -0.21985846527504357, -0.21985846527504357]",True,False,darker,True,0.6666342000244185,up,down,"(0, 0)","(0, 0)","(1, 1)","(0, 0)","(0, 0)","(1, 0)","(0, 1)","(0, 0)"
131,interactor,132,9.217281090221855,-0.09185776288683434,0.335,45_top_u,True,3.5757731000194326,,3.8423273999942467,True,"[0.24314223711316568, 0.24314223711316568, 0.24314223711316568]",False,True,lighter,True,0.6337754999985918,down,left,"(1, 0)","(0, 0)","(0, 0)","(0, 1)","(0, 0)","(0, 0)","(0, 0)","(1, 1)"
132,interactor,133,9.581853891892303,0.13701802669500396,0.335,45_top_u,False,,,3.8565162000013515,True,"[0.472018026695004, 0.472018026695004, 0.472018026695004]",True,False,lighter,True,1.1186688999878243,down,up,"(1, 1)","(0, 0)","(0, 0)","(0, 0)","(0, 1)","(0, 0)","(0, 0)","(1, 0)"
133,interactor,134,9.69930898040969,0.3738306722210638,-0.335,45_bottom_l,False,,,3.857920400041621,True,"[0.03883067222106379, 0.03883067222106379, 0.03883067222106379]",True,False,darker,True,0.7003591999527998,right,left,"(0, 0)","(0, 0)","(0, 0)","(1, 1)","(1, 0)","(0, 0)","(0, 0)","(0, 1)"
134,interactor,135,9.489603418727151,0.30285349537326844,-0.168,135_bottom_r,True,3.572626300039701,,3.8410957000451162,True,"[0.13485349537326843, 0.13485349537326843, 0.13485349537326843]",False,True,darker,True,0.9482918999856338,left,up,"(0, 1)","(1, 0)","(0, 0)","(0, 0)","(1, 1)","(0, 0)","(0, 0)","(0, 0)"
135,interactor,136,9.433800706666238,0.4678659935772549,0.168,45_bottom_l,False,,,3.8569217000040226,True,"[0.6358659935772549, 0.6358659935772549, 0.6358659935772549]",True,False,lighter,True,0.5843011999968439,right,left,"(0, 0)","(0, 0)","(0, 0)","(1, 1)","(1, 0)","(0, 0)","(0, 0)","(0, 1)"
136,empty,137,9.25718699493719,0.23975110596567967,0.0,none_u,False,,,3.8581845000153407,True,"[0.23975110596567967, 0.23975110596567967, 0.23975110596567967]",True,True,lighter,,1.1168241999694146,down,up,"(1, 1)","(0, 0)","(0, 0)","(0, 0)","(1, 1)","(0, 0)","(0, 0)","(0, 0)"
137,interactor,138,9.153954981621425,0.011586416646699405,0.0,45_bottom_l,False,,,3.85846550000133,True,"[0.011586416646699405, 0.011586416646699405, 0.011586416646699405]",True,False,x,,,right,left,"(0, 0)","(0, 0)","(0, 0)","(1, 1)","(1, 0)","(0, 0)","(0, 0)","(0, 1)"
138,interactor,139,9.455159348233442,0.48323031514917913,0.0,45_top_r,True,3.574821400048677,,3.841199600021355,True,"[0.48323031514917913, 0.48323031514917913, 0.48323031514917913]",False,True,lighter,,0.5829616999835707,left,down,"(0, 0)","(1, 0)","(0, 1)","(0, 0)","(0, 0)","(0, 0)","(1, 1)","(0, 0)"
139,empty,140,9.536730108725271,0.1356368466494899,0.0,none_r,False,,,3.857820199977141,True,"[0.1356368466494899, 0.1356368466494899, 0.1356368466494899]",True,True,lighter,,0.5831803000182845,left,right,"(0, 0)","(1, 1)","(0, 0)","(0, 0)","(0, 0)","(1, 1)","(0, 0)","(0, 0)"
140,interactor,141,9.886483082940615,-0.06308611787061921,0.168,45_top_r,True,3.5748239000095055,,3.859560600016266,True,"[0.1049138821293808, 0.1049138821293808, 0.1049138821293808]",False,True,lighter,True,0.5338707999908365,left,down,"(0, 0)","(1, 0)","(0, 1)","(0, 0)","(0, 0)","(0, 0)","(1, 1)","(0, 0)"
141,interactor,142,9.373704761795324,-0.037085156749798315,0.335,45_bottom_d,True,3.5741439999546856,,3.8407235999475233,True,"[0.2979148432502017, 0.2979148432502017, 0.2979148432502017]",False,True,lighter,True,0.5514940000139177,up,right,"(0, 0)","(0, 1)","(1, 0)","(0, 0)","(0, 0)","(1, 1)","(0, 0)","(0, 0)"
142,interactor,143,9.58661000913651,-0.17754732681125654,-0.335,135_bottom_d,False,,,3.8576026000082493,True,"[-0.5125473268112566, -0.5125473268112566, -0.5125473268112566]",True,False,darker,True,0.5674738999805413,up,down,"(0, 0)","(0, 0)","(1, 1)","(0, 0)","(0, 0)","(0, 0)","(0, 1)","(1, 0)"
143,empty,144,9.895768043491664,-0.1112821508541891,0.168,none_u,False,,,3.857381199952215,True,"[0.056717849145810906, 0.056717849145810906, 0.056717849145810906]",True,True,lighter,True,0.551765600044746,down,up,"(1, 1)","(0, 0)","(0, 0)","(0, 0)","(1, 1)","(0, 0)","(0, 0)","(0, 0)"
144,interactor,145,9.433931110596019,0.040488567477593815,0.168,45_bottom_l,True,3.573704600043129,,3.841027899994515,True,"[0.2084885674775938, 0.2084885674775938, 0.2084885674775938]",False,True,lighter,True,0.7006825000280514,right,up,"(0, 1)","(0, 0)","(0, 0)","(1, 0)","(1, 1)","(0, 0)","(0, 0)","(0, 0)"
145,empty,146,9.57105091336162,0.03498437534211793,-0.335,none_u,False,,,3.857689099968411,True,"[-0.3000156246578821, -0.3000156246578821, -0.3000156246578821]",True,True,darker,True,0.5506024999776855,down,up,"(1, 1)","(0, 0)","(0, 0)","(0, 0)","(1, 1)","(0, 0)","(0, 0)","(0, 0)"
146,empty,147,9.940850933588212,0.06689989559300645,0.0,none_u,False,,,3.857749500020873,True,"[0.06689989559300645, 0.06689989559300645, 0.06689989559300645]",True,True,lighter,,0.7002336999867111,down,up,"(1, 1)","(0, 0)","(0, 0)","(0, 0)","(1, 1)","(0, 0)","(0, 0)","(0, 0)"
147,empty,148,9.399456695175573,-0.24843112120711405,0.335,none_l,True,3.57412409997778,left,3.8413283999543637,True,"[0.08656887879288597, 0.08656887879288597, 0.08656887879288597]",False,False,lighter,True,0.5490246000117622,right,down,"(0, 0)","(0, 0)","(0, 1)","(1, 0)","(0, 0)","(0, 0)","(0, 1)","(1, 0)"
148,interactor,149,9.406377433988345,0.24988152439149783,-0.335,45_top_u,True,3.573296000016853,,3.839810600038618,True,"[-0.08511847560850219, -0.08511847560850219, -0.08511847560850219]",False,True,darker,True,0.8000183000112884,down,left,"(1, 0)","(0, 0)","(0, 0)","(0, 1)","(0, 0)","(0, 0)","(0, 0)","(1, 1)"
149,interactor,150,9.40442184884124,0.35009968022650706,0.0,135_bottom_r,True,3.5739535000175238,,3.842542800004594,True,"[0.35009968022650706, 0.35009968022650706, 0.35009968022650706]",False,True,lighter,,0.7169964000349864,left,up,"(0, 1)","(1, 0)","(0, 0)","(0, 0)","(1, 1)","(0, 0)","(0, 0)","(0, 0)"
150,empty,151,9.680701292985493,0.30934710073458493,-0.168,none_l,True,3.575107000011485,left,3.8414942999952473,True,"[0.14134710073458492, 0.14134710073458492, 0.14134710073458492]",False,False,lighter,False,1.0671468999935314,right,down,"(0, 0)","(0, 0)","(0, 1)","(1, 0)","(0, 0)","(0, 0)","(0, 1)","(1, 0)"
151,empty,152,9.663069496131403,0.15643235555946317,-0.168,none_r,False,,,3.8583921999670565,True,"[-0.011567644440536845, -0.011567644440536845, -0.011567644440536845]",True,True,darker,True,0.550418000028003,left,right,"(0, 0)","(1, 1)","(0, 0)","(0, 0)","(0, 0)","(1, 1)","(0, 0)","(0, 0)"
152,empty,153,9.132632482903189,0.0880043927474709,0.335,none_r,True,3.573809400026221,right,3.8399771000258625,True,"[0.4230043927474709, 0.4230043927474709, 0.4230043927474709]",False,False,lighter,True,0.6020192999858409,left,down,"(0, 0)","(1, 0)","(0, 1)","(0, 0)","(0, 0)","(1, 0)","(0, 1)","(0, 0)"
153,empty,154,9.487368908952238,0.14507299079826874,-0.335,none_d,False,,,3.8587204999639653,True,"[-0.18992700920173128, -0.18992700920173128, -0.18992700920173128]",True,True,darker,True,0.9171266999910586,up,down,"(0, 0)","(0, 0)","(1, 1)","(0, 0)","(0, 0)","(0, 0)","(1, 1)","(0, 0)"
154,interactor,155,9.245319424788324,0.13606216930200338,-0.168,135_top_l,False,,,3.8578138999873772,True,"[-0.03193783069799663, -0.03193783069799663, -0.03193783069799663]",True,False,darker,True,0.6009399999747984,right,left,"(0, 0)","(0, 0)","(0, 0)","(1, 1)","(0, 0)","(0, 0)","(1, 0)","(0, 1)"
155,interactor,156,9.653416455144443,0.32871437685684,0.168,135_top_l,False,,,3.8572631000424735,True,"[0.49671437685684006, 0.49671437685684006, 0.49671437685684006]",True,False,lighter,True,0.5016079999622889,right,left,"(0, 0)","(0, 0)","(0, 0)","(1, 1)","(0, 0)","(0, 0)","(1, 0)","(0, 1)"
156,interactor,157,9.610452338631298,0.33119237138769053,0.168,135_bottom_r,False,,,3.8585241999826394,True,"[0.49919237138769057, 0.49919237138769057, 0.49919237138769057]",True,False,lighter,True,0.4667403000057675,left,right,"(0, 0)","(1, 1)","(0, 0)","(0, 0)","(1, 0)","(0, 1)","(0, 0)","(0, 0)"
157,empty,158,9.320384405934536,0.27893717140621893,-0.335,none_l,False,,,3.859751599957235,True,"[-0.05606282859378109, -0.05606282859378109, -0.05606282859378109]",True,True,darker,True,0.6839678999967873,right,left,"(0, 0)","(0, 0)","(0, 0)","(1, 1)","(0, 0)","(0, 0)","(0, 0)","(1, 1)"
158,interactor,159,9.551372079801316,0.3916622694455278,-0.335,45_bottom_d,False,,,3.858203899988439,True,"[0.05666226944552777, 0.05666226944552777, 0.05666226944552777]",True,False,darker,True,0.6659255999838933,up,down,"(0, 0)","(0, 0)","(1, 1)","(0, 0)","(0, 0)","(1, 0)","(0, 1)","(0, 0)"
159,empty,160,9.133868197419133,0.2233512973186376,0.335,none_l,True,3.5760711999610066,left,3.842559699958656,True,"[0.5583512973186376, 0.5583512973186376, 0.5583512973186376]",False,False,lighter,True,0.4674123000004329,right,down,"(0, 0)","(0, 0)","(0, 1)","(1, 0)","(0, 0)","(0, 0)","(0, 1)","(1, 0)"
160,empty,161,9.25063551502402,0.1094948200183157,0.168,none_l,True,3.5749644999741577,left,3.8409100999706425,True,"[0.2774948200183157, 0.2774948200183157, 0.2774948200183157]",False,False,lighter,True,0.9674533000215888,right,down,"(0, 0)","(0, 0)","(0, 1)","(1, 0)","(0, 0)","(0, 0)","(0, 1)","(1, 0)"
161,interactor,162,9.312404424498371,0.24124256607313116,0.335,135_bottom_d,True,3.5747928000055254,,3.841310899995733,True,"[0.5762425660731312, 0.5762425660731312, 0.5762425660731312]",False,True,lighter,True,0.6663478999980725,up,left,"(0, 0)","(0, 0)","(1, 0)","(0, 1)","(0, 0)","(0, 0)","(0, 0)","(1, 1)"
162,empty,163,9.864337290317227,0.2667036784981561,-0.335,none_d,False,,,3.8582446000073105,True,"[-0.06829632150184389, -0.06829632150184389, -0.06829632150184389]",True,True,darker,True,0.6847605999791995,up,down,"(0, 0)","(0, 0)","(1, 1)","(0, 0)","(0, 0)","(0, 0)","(1, 1)","(0, 0)"
163,empty,164,9.948394253454005,0.3232060404531706,0.0,none_l,True,3.5740095000364818,left,3.858170000021346,True,"[0.3232060404531706, 0.3232060404531706, 0.3232060404531706]",False,False,lighter,,0.6491394999902695,right,down,"(0, 0)","(0, 0)","(0, 1)","(1, 0)","(0, 0)","(0, 0)","(0, 1)","(1, 0)"
164,empty,165,9.4324550016317,0.024881503173715236,0.335,none_r,False,,,3.8582362000015564,True,"[0.35988150317371526, 0.35988150317371526, 0.35988150317371526]",True,True,lighter,True,0.6332434000214562,left,right,"(0, 0)","(1, 1)","(0, 0)","(0, 0)","(0, 0)","(1, 1)","(0, 0)","(0, 0)"
165,empty,166,9.52470053911376,-0.048098219904242456,0.335,none_u,False,,,3.856671700021252,True,"[0.28690178009575756, 0.28690178009575756, 0.28690178009575756]",True,True,lighter,True,0.7342083000112325,down,up,"(1, 1)","(0, 0)","(0, 0)","(0, 0)","(1, 1)","(0, 0)","(0, 0)","(0, 0)"
166,empty,167,9.532001931340668,0.2736527678854384,0.168,none_u,True,3.574455299996771,left,3.841486999997869,True,"[0.4416527678854384, 0.4416527678854384, 0.4416527678854384]",False,False,lighter,True,0.5339276999584399,down,left,"(1, 0)","(0, 0)","(0, 0)","(0, 1)","(1, 0)","(0, 0)","(0, 0)","(0, 1)"
167,interactor,168,9.278478685582721,0.11471396292229478,-0.168,135_bottom_d,False,,,3.8593716000323184,True,"[-0.053286037077705226, -0.053286037077705226, -0.053286037077705226]",True,False,lighter,False,0.43182299996260554,up,down,"(0, 0)","(0, 0)","(1, 1)","(0, 0)","(0, 0)","(0, 0)","(0, 1)","(1, 0)"
168,empty,169,9.293669853325474,0.1160090762566118,0.0,none_r,False,,,3.917822699993849,True,"[0.1160090762566118, 0.1160090762566118, 0.1160090762566118]",True,True,lighter,,0.3834006999968551,left,right,"(0, 0)","(1, 1)","(0, 0)","(0, 0)","(0, 0)","(1, 1)","(0, 0)","(0, 0)"
169,empty,170,9.622184131846124,0.061789177026833286,-0.335,none_d,False,,,3.8581699000205845,True,"[-0.27321082297316673, -0.27321082297316673, -0.27321082297316673]",True,True,darker,True,0.634966199984774,up,down,"(0, 0)","(0, 0)","(1, 1)","(0, 0)","(0, 0)","(0, 0)","(1, 1)","(0, 0)"
170,empty,171,9.244925107863889,-0.11409915357857384,0.168,none_l,True,3.5758401000057347,left,3.8422245999681763,True,"[0.053900846421426174, 0.053900846421426174, 0.053900846421426174]",False,False,lighter,True,0.5835903999977745,right,down,"(0, 0)","(0, 0)","(0, 1)","(1, 0)","(0, 0)","(0, 0)","(0, 1)","(1, 0)"
171,interactor,172,9.878385982719829,0.23793508036250022,0.335,45_bottom_d,False,,,3.8584125000052154,True,"[0.5729350803625002, 0.5729350803625002, 0.5729350803625002]",True,False,lighter,True,0.6001588000217453,up,down,"(0, 0)","(0, 0)","(1, 1)","(0, 0)","(0, 0)","(1, 0)","(0, 1)","(0, 0)"
172,empty,173,9.55971286053116,0.028362300503731327,-0.168,none_l,False,,,3.858102999976836,True,"[-0.1396376994962687, -0.1396376994962687, -0.1396376994962687]",True,True,darker,True,1.083679800038226,right,left,"(0, 0)","(0, 0)","(0, 0)","(1, 1)","(0, 0)","(0, 0)","(0, 0)","(1, 1)"
173,empty,174,9.882001613429425,-0.3276850915114494,0.0,none_r,True,3.574642200022936,left,3.8581833000062034,True,"[-0.3276850915114494, -0.3276850915114494, -0.3276850915114494]",False,False,darker,,1.0185253000236116,left,up,"(0, 1)","(1, 0)","(0, 0)","(0, 0)","(0, 1)","(1, 0)","(0, 0)","(0, 0)"
174,empty,175,9.507090665080062,0.2746726782020392,-0.335,none_l,False,,,3.8578273000312038,True,"[-0.0603273217979608, -0.0603273217979608, -0.0603273217979608]",True,True,darker,True,0.6500125000020489,right,left,"(0, 0)","(0, 0)","(0, 0)","(1, 1)","(0, 0)","(0, 0)","(0, 0)","(1, 1)"
175,interactor,176,9.411774610988012,0.13497461297933921,-0.335,135_top_l,False,,,3.8582149000139907,True,"[-0.2000253870206608, -0.2000253870206608, -0.2000253870206608]",True,False,darker,True,0.6670958999893628,right,left,"(0, 0)","(0, 0)","(0, 0)","(1, 1)","(0, 0)","(0, 0)","(1, 0)","(0, 1)"
176,interactor,177,9.530696106192222,0.07514674800881276,-0.168,45_top_u,False,,,3.858530699973926,True,"[-0.09285325199118726, -0.09285325199118726, -0.09285325199118726]",True,False,darker,True,0.7013554000295699,down,up,"(1, 1)","(0, 0)","(0, 0)","(0, 0)","(0, 1)","(0, 0)","(0, 0)","(1, 0)"
177,interactor,178,9.284284151163,0.30359095575985606,0.168,135_bottom_r,True,3.5745191000169143,,3.843051200034097,True,"[0.4715909557598561, 0.4715909557598561, 0.4715909557598561]",False,True,lighter,True,0.7496400999953039,left,up,"(0, 1)","(1, 0)","(0, 0)","(0, 0)","(1, 1)","(0, 0)","(0, 0)","(0, 0)"
178,empty,179,9.464233513790306,-0.1359739896258538,-0.335,none_d,True,3.5752841000212356,right,3.8404927999945357,True,"[-0.4709739896258538, -0.4709739896258538, -0.4709739896258538]",False,False,darker,True,0.7348039000062272,up,left,"(0, 0)","(0, 0)","(1, 0)","(0, 1)","(0, 0)","(0, 0)","(1, 0)","(0, 1)"
179,interactor,180,9.522235818210664,0.2639043363622724,0.335,135_bottom_r,True,3.5761257999693044,,3.8416561000049114,True,"[0.5989043363622724, 0.5989043363622724, 0.5989043363622724]",False,True,lighter,True,0.5670690999832004,left,up,"(0, 1)","(1, 0)","(0, 0)","(0, 0)","(1, 1)","(0, 0)","(0, 0)","(0, 0)"
180,empty,181,9.911789384281551,-0.24761942639797643,-0.168,none_d,True,3.5764173999777995,right,3.8591037999722175,True,"[-0.41561942639797644, -0.41561942639797644, -0.41561942639797644]",False,False,lighter,False,0.4337591999792494,up,left,"(0, 0)","(0, 0)","(1, 0)","(0, 1)","(0, 0)","(0, 0)","(1, 0)","(0, 1)"
181,interactor,182,9.661842969411946,0.3674135627513673,0.335,45_bottom_l,False,,,3.857297300011851,True,"[0.7024135627513672, 0.7024135627513672, 0.7024135627513672]",True,False,lighter,True,0.4335430999635719,right,left,"(0, 0)","(0, 0)","(0, 0)","(1, 1)","(1, 0)","(0, 0)","(0, 0)","(0, 1)"
182,interactor,183,9.487776685738119,0.5813221871801516,-0.335,135_bottom_r,False,,,3.8584935999824665,True,"[0.24632218718015159, 0.24632218718015159, 0.24632218718015159]",True,False,darker,True,0.5013114999746904,left,right,"(0, 0)","(1, 1)","(0, 0)","(0, 0)","(1, 0)","(0, 1)","(0, 0)","(0, 0)"
183,interactor,184,9.92244986041908,0.1742782551197199,-0.168,45_top_r,True,3.5739743000012822,,3.8583308000233956,True,"[0.006278255119719883, 0.006278255119719883, 0.006278255119719883]",False,True,lighter,False,0.5487384999869391,left,down,"(0, 0)","(1, 0)","(0, 1)","(0, 0)","(0, 0)","(0, 0)","(1, 1)","(0, 0)"
184,interactor,185,9.305552721442563,0.03979346227138475,0.335,45_bottom_d,True,3.5758765999926254,,3.8422790999757126,True,"[0.37479346227138477, 0.37479346227138477, 0.37479346227138477]",False,True,lighter,True,0.43357100000139326,up,right,"(0, 0)","(0, 1)","(1, 0)","(0, 0)","(0, 0)","(1, 1)","(0, 0)","(0, 0)"
185,interactor,186,9.700020714320118,0.23937601867128844,0.0,45_top_u,False,,,3.8594706999720074,True,"[0.23937601867128844, 0.23937601867128844, 0.23937601867128844]",True,False,darker,,1.1668749999953434,down,up,"(1, 1)","(0, 0)","(0, 0)","(0, 0)","(0, 1)","(0, 0)","(0, 0)","(1, 0)"
186,interactor,187,9.436845184286092,0.4260457754118303,0.335,45_top_u,False,,,3.856691299995873,True,"[0.7610457754118303, 0.7610457754118303, 0.7610457754118303]",True,False,lighter,True,0.5352154999854974,down,up,"(1, 1)","(0, 0)","(0, 0)","(0, 0)","(0, 1)","(0, 0)","(0, 0)","(1, 0)"
187,interactor,188,9.895752818395906,0.1627248371295952,0.0,135_bottom_d,True,3.57380519999424,,3.8584695999743417,True,"[0.1627248371295952, 0.1627248371295952, 0.1627248371295952]",False,True,lighter,,0.5995807999861427,up,left,"(0, 0)","(0, 0)","(1, 0)","(0, 1)","(0, 0)","(0, 0)","(0, 0)","(1, 1)"
188,interactor,189,9.90898450892889,-0.03588937952509519,0.168,45_top_u,False,,,3.8583764999639243,True,"[0.13211062047490482, 0.13211062047490482, 0.13211062047490482]",True,False,lighter,True,0.5842606000369415,down,up,"(1, 1)","(0, 0)","(0, 0)","(0, 0)","(0, 1)","(0, 0)","(0, 0)","(1, 0)"
189,interactor,190,9.910002824058498,-0.09234101070010503,0.168,135_bottom_d,True,3.573649799975101,,3.858150099986233,True,"[0.07565898929989498, 0.07565898929989498, 0.07565898929989498]",False,True,lighter,True,0.35155120003037155,up,left,"(0, 0)","(0, 0)","(1, 0)","(0, 1)","(0, 0)","(0, 0)","(0, 0)","(1, 1)"
190,interactor,191,9.626907438221192,0.3786380429353712,0.0,45_top_r,True,3.5748756999964826,,3.8431598999886774,True,"[0.3786380429353712, 0.3786380429353712, 0.3786380429353712]",False,True,lighter,,0.6004495999659412,left,down,"(0, 0)","(1, 0)","(0, 1)","(0, 0)","(0, 0)","(0, 0)","(1, 1)","(0, 0)"
191,interactor,192,9.723454768769923,0.17396161024865917,-0.168,135_top_u,True,3.5746537999948487,,3.8410420999862254,True,"[0.005961610248659155, 0.005961610248659155, 0.005961610248659155]",False,True,darker,True,0.867752299993299,down,right,"(1, 0)","(0, 1)","(0, 0)","(0, 0)","(0, 0)","(1, 1)","(0, 0)","(0, 0)"
192,empty,193,9.37642468845724,0.12681971436199735,0.168,none_r,True,3.5739083000225946,left,3.84103100001812,True,"[0.2948197143619974, 0.2948197143619974, 0.2948197143619974]",False,False,lighter,True,0.5327651999541558,left,up,"(0, 1)","(1, 0)","(0, 0)","(0, 0)","(0, 1)","(1, 0)","(0, 0)","(0, 0)"
193,empty,194,9.772314533849125,0.36618881576000606,0.0,none_u,True,3.575855600007344,left,3.841022400010843,True,"[0.36618881576000606, 0.36618881576000606, 0.36618881576000606]",False,False,lighter,,0.6504340000101365,down,left,"(1, 0)","(0, 0)","(0, 0)","(0, 1)","(1, 0)","(0, 0)","(0, 0)","(0, 1)"
194,empty,195,9.944651600410332,0.2506502172143004,0.335,none_l,True,3.5746233999961987,left,3.8580133999930695,True,"[0.5856502172143004, 0.5856502172143004, 0.5856502172143004]",False,False,lighter,True,0.4337870000163093,right,down,"(0, 0)","(0, 0)","(0, 1)","(1, 0)","(0, 0)","(0, 0)","(0, 1)","(1, 0)"
195,empty,196,9.502063141361758,0.20175356687025953,0.335,none_l,False,,,3.8565971999778412,True,"[0.5367535668702595, 0.5367535668702595, 0.5367535668702595]",True,True,lighter,True,0.5665445000049658,right,left,"(0, 0)","(0, 0)","(0, 0)","(1, 1)","(0, 0)","(0, 0)","(0, 0)","(1, 1)"
196,interactor,197,8.85967548651728,0.21713928327739945,0.335,45_bottom_d,True,3.5734749999828637,,3.8410438999999315,True,"[0.5521392832773995, 0.5521392832773995, 0.5521392832773995]",False,True,lighter,True,0.4331207000068389,up,right,"(0, 0)","(0, 1)","(1, 0)","(0, 0)","(0, 0)","(1, 1)","(0, 0)","(0, 0)"
197,empty,198,9.426346200183866,0.10750454227490575,0.0,none_u,True,3.5740143999573775,right,3.8404567999532446,True,"[0.10750454227490575, 0.10750454227490575, 0.10750454227490575]",False,False,lighter,,0.43441460002213717,down,right,"(1, 0)","(0, 1)","(0, 0)","(0, 0)","(1, 0)","(0, 1)","(0, 0)","(0, 0)"
198,empty,199,9.43465203628647,0.30471875240589874,-0.168,none_u,False,,,3.8593745000544004,True,"[0.13671875240589873, 0.13671875240589873, 0.13671875240589873]",True,True,lighter,False,0.5826762999640778,down,up,"(1, 1)","(0, 0)","(0, 0)","(0, 0)","(1, 1)","(0, 0)","(0, 0)","(0, 0)"
199,empty,200,9.006722130622148,0.3024242423683924,-0.168,none_d,True,3.5743642000015825,right,3.842042100033723,True,"[0.13442424236839237, 0.13442424236839237, 0.13442424236839237]",False,False,lighter,False,0.7504164999700151,up,left,"(0, 0)","(0, 0)","(1, 0)","(0, 1)","(0, 0)","(0, 0)","(1, 0)","(0, 1)"
200,empty,201,9.800452559021142,-0.055808293965708355,0.168,none_r,True,3.5763365000020713,left,3.842644200020004,True,"[0.11219170603429166, 0.11219170603429166, 0.11219170603429166]",False,False,lighter,True,0.4667570000165142,left,up,"(0, 1)","(1, 0)","(0, 0)","(0, 0)","(0, 1)","(1, 0)","(0, 0)","(0, 0)"
201,empty,202,9.666943788237626,0.43620031985882346,-0.168,none_d,False,,,3.858311100048013,True,"[0.2682003198588234, 0.2682003198588234, 0.2682003198588234]",True,True,darker,True,0.6165076000033878,up,down,"(0, 0)","(0, 0)","(1, 1)","(0, 0)","(0, 0)","(0, 0)","(1, 1)","(0, 0)"
202,interactor,203,9.346282337341156,0.10208010793644304,0.335,135_bottom_d,True,3.5734453999903053,,3.8409382000099868,True,"[0.43708010793644303, 0.43708010793644303, 0.43708010793644303]",False,True,lighter,True,0.5844683999894187,up,left,"(0, 0)","(0, 0)","(1, 0)","(0, 1)","(0, 0)","(0, 0)","(0, 0)","(1, 1)"
203,interactor,204,9.287872506702575,0.20927110278557953,-0.335,45_top_r,False,,,3.858075500000268,True,"[-0.1257288972144205, -0.1257288972144205, -0.1257288972144205]",True,False,darker,True,0.6500971000059508,left,right,"(0, 0)","(1, 1)","(0, 0)","(0, 0)","(0, 0)","(0, 1)","(1, 0)","(0, 0)"
204,empty,205,9.526755048684219,-0.029947552341939354,0.335,none_d,False,,,3.857804400031455,True,"[0.30505244765806067, 0.30505244765806067, 0.30505244765806067]",True,True,lighter,True,0.3832748999702744,up,down,"(0, 0)","(0, 0)","(1, 1)","(0, 0)","(0, 0)","(0, 0)","(1, 1)","(0, 0)"
205,interactor,206,9.603037383485194,0.00881521293694909,0.335,45_top_r,False,,,3.8568767000106163,True,"[0.3438152129369491, 0.3438152129369491, 0.3438152129369491]",True,False,lighter,True,0.5011802000226453,left,right,"(0, 0)","(1, 1)","(0, 0)","(0, 0)","(0, 0)","(0, 1)","(1, 0)","(0, 0)"
206,empty,207,9.43966452606259,0.4051216131688342,0.0,none_u,False,,,3.8585985000245273,True,"[0.4051216131688342, 0.4051216131688342, 0.4051216131688342]",True,True,darker,,0.9173806000035256,down,up,"(1, 1)","(0, 0)","(0, 0)","(0, 0)","(1, 1)","(0, 0)","(0, 0)","(0, 0)"
207,interactor,208,9.361119795014423,0.3857541966505579,0.335,135_bottom_r,False,,,3.8568814999889582,True,"[0.720754196650558, 0.720754196650558, 0.720754196650558]",True,False,lighter,True,0.5994421999785118,left,right,"(0, 0)","(1, 1)","(0, 0)","(0, 0)","(1, 0)","(0, 1)","(0, 0)","(0, 0)"
208,empty,209,9.698389035240366,-0.010570968085471727,0.168,none_d,False,,,3.859569400025066,True,"[0.15742903191452828, 0.15742903191452828, 0.15742903191452828]",True,True,lighter,True,0.43340989999705926,up,down,"(0, 0)","(0, 0)","(1, 1)","(0, 0)","(0, 0)","(0, 0)","(1, 1)","(0, 0)"
209,empty,210,9.585949466834354,0.28949416326179434,-0.335,none_d,True,3.5732763999840245,left,3.8416863000020385,True,"[-0.045505836738205685, -0.045505836738205685, -0.045505836738205685]",False,False,darker,True,0.8505626000114717,up,right,"(0, 0)","(0, 1)","(1, 0)","(0, 0)","(0, 0)","(0, 1)","(1, 0)","(0, 0)"
210,empty,211,9.420633494265465,0.18316690761387727,-0.168,none_u,False,,,3.8582632999750786,True,"[0.015166907613877262, 0.015166907613877262, 0.015166907613877262]",True,True,darker,True,0.6356531999772415,down,up,"(1, 1)","(0, 0)","(0, 0)","(0, 0)","(1, 1)","(0, 0)","(0, 0)","(0, 0)"
211,interactor,212,9.291710863642322,0.2643284155002862,-0.335,135_bottom_d,False,,,3.8578130999812856,True,"[-0.07067158449971384, -0.07067158449971384, -0.07067158449971384]",True,False,darker,True,0.6336828999919817,up,down,"(0, 0)","(0, 0)","(1, 1)","(0, 0)","(0, 0)","(0, 0)","(0, 1)","(1, 0)"
212,empty,213,9.292412334138037,0.0982003185809896,0.335,none_d,False,,,3.85819860000629,True,"[0.4332003185809896, 0.4332003185809896, 0.4332003185809896]",True,True,lighter,True,0.4513605000101961,up,down,"(0, 0)","(0, 0)","(1, 1)","(0, 0)","(0, 0)","(0, 0)","(1, 1)","(0, 0)"
213,empty,214,9.37288799136406,0.03969354620194933,-0.335,none_l,True,3.5755584000144154,left,3.8427480999962427,True,"[-0.2953064537980507, -0.2953064537980507, -0.2953064537980507]",False,False,darker,True,0.716864500020165,right,down,"(0, 0)","(0, 0)","(0, 1)","(1, 0)","(0, 0)","(0, 0)","(0, 1)","(1, 0)"
214,interactor,215,9.266757441211624,0.23389106984659805,-0.168,135_top_u,False,,,3.8593135999981314,True,"[0.06589106984659804, 0.06589106984659804, 0.06589106984659804]",True,False,darker,True,0.5337492999969982,down,up,"(1, 1)","(0, 0)","(0, 0)","(0, 0)","(0, 1)","(1, 0)","(0, 0)","(0, 0)"
215,empty,216,9.309238737463676,0.1766491314083344,0.168,none_l,True,3.5761806999798864,right,3.841203099989798,True,"[0.3446491314083344, 0.3446491314083344, 0.3446491314083344]",False,False,lighter,True,0.6184888000134379,right,up,"(0, 1)","(0, 0)","(0, 0)","(1, 0)","(0, 1)","(0, 0)","(0, 0)","(1, 0)"
216,interactor,217,9.106730897811671,0.007535090305650305,0.0,135_bottom_r,True,3.573790900001768,,3.8411896000034176,True,"[0.007535090305650305, 0.007535090305650305, 0.007535090305650305]",False,True,lighter,,0.7329487000242807,left,up,"(0, 1)","(1, 0)","(0, 0)","(0, 0)","(1, 1)","(0, 0)","(0, 0)","(0, 0)"
217,interactor,218,8.986578100621445,-0.013783466988530724,0.0,135_top_u,False,,,3.8574511000188068,True,"[-0.013783466988530724, -0.013783466988530724, -0.013783466988530724]",True,False,darker,,1.1652960000210442,down,up,"(1, 1)","(0, 0)","(0, 0)","(0, 0)","(0, 1)","(1, 0)","(0, 0)","(0, 0)"
218,empty,219,9.7261969521616,0.48615380959478816,0.168,none_r,False,,,3.857791999995243,True,"[0.6541538095947882, 0.6541538095947882, 0.6541538095947882]",True,True,lighter,True,0.39973609999287874,left,right,"(0, 0)","(1, 1)","(0, 0)","(0, 0)","(0, 0)","(1, 1)","(0, 0)","(0, 0)"
219,interactor,220,9.30321083997916,0.17789798170141058,0.0,45_bottom_d,True,3.5740363000077195,,3.8405741999740712,True,"[0.17789798170141058, 0.17789798170141058, 0.17789798170141058]",False,True,lighter,,0.6502407999942079,up,right,"(0, 0)","(0, 1)","(1, 0)","(0, 0)","(0, 0)","(1, 1)","(0, 0)","(0, 0)"
220,empty,221,9.296714158880402,0.05366591347383466,-0.168,none_r,True,3.5741155999712646,right,3.8423832999542356,True,"[-0.11433408652616535, -0.11433408652616535, -0.11433408652616535]",False,False,darker,True,0.9156391000142321,left,down,"(0, 0)","(1, 0)","(0, 1)","(0, 0)","(0, 0)","(1, 0)","(0, 1)","(0, 0)"
221,interactor,222,9.6473936854446,0.11454607333175432,0.168,45_bottom_d,False,,,3.857855500013102,True,"[0.2825460733317543, 0.2825460733317543, 0.2825460733317543]",True,False,lighter,True,0.5333059999975376,up,down,"(0, 0)","(0, 0)","(1, 1)","(0, 0)","(0, 0)","(1, 0)","(0, 1)","(0, 0)"
222,empty,223,9.721881467931336,0.4654942364392065,0.168,none_l,False,,,3.85791479999898,True,"[0.6334942364392065, 0.6334942364392065, 0.6334942364392065]",True,True,lighter,True,0.5839539000298828,right,left,"(0, 0)","(0, 0)","(0, 0)","(1, 1)","(0, 0)","(0, 0)","(0, 0)","(1, 1)"
223,empty,224,9.739767685590166,0.25424473386081226,0.168,none_l,True,3.575506100023631,left,3.842035899986513,True,"[0.4222447338608123, 0.4222447338608123, 0.4222447338608123]",False,False,lighter,True,0.5173375000013039,right,down,"(0, 0)","(0, 0)","(0, 1)","(1, 0)","(0, 0)","(0, 0)","(0, 1)","(1, 0)"
224,empty,225,9.566522769199329,0.27626662165280036,-0.335,none_r,True,3.573887799982913,left,3.8402299000299536,True,"[-0.05873337834719966, -0.05873337834719966, -0.05873337834719966]",False,False,darker,True,0.7171381999505684,left,up,"(0, 1)","(1, 0)","(0, 0)","(0, 0)","(0, 1)","(1, 0)","(0, 0)","(0, 0)"
225,empty,226,9.286433380534511,0.2943987866653205,0.168,none_l,True,3.5745363000314683,left,3.840714299993124,True,"[0.4623987866653205, 0.4623987866653205, 0.4623987866653205]",False,False,lighter,True,0.567703899985645,right,down,"(0, 0)","(0, 0)","(0, 1)","(1, 0)","(0, 0)","(0, 0)","(0, 1)","(1, 0)"
226,empty,227,9.493886686347848,0.3941037955299802,-0.335,none_u,True,3.575129000004381,right,3.841030600015074,True,"[0.059103795529980185, 0.059103795529980185, 0.059103795529980185]",False,False,darker,True,1.05226650001714,down,right,"(1, 0)","(0, 1)","(0, 0)","(0, 0)","(1, 0)","(0, 1)","(0, 0)","(0, 0)"
227,empty,228,9.329917279257069,0.26559536757467406,0.335,none_d,True,3.5741778000374325,left,3.8414159000385553,True,"[0.600595367574674, 0.600595367574674, 0.600595367574674]",False,False,lighter,True,0.7158745999913663,up,right,"(0, 0)","(0, 1)","(1, 0)","(0, 0)","(0, 0)","(0, 1)","(1, 0)","(0, 0)"
228,empty,229,9.25710262548435,0.3492835856617851,0.335,none_d,False,,,3.8582198999938555,True,"[0.684283585661785, 0.684283585661785, 0.684283585661785]",True,True,darker,False,1.017205499985721,up,down,"(0, 0)","(0, 0)","(1, 1)","(0, 0)","(0, 0)","(0, 0)","(1, 1)","(0, 0)"
229,empty,230,9.227703107490086,0.386611369517457,-0.168,none_d,True,3.574361199978739,left,3.840412200021092,True,"[0.218611369517457, 0.218611369517457, 0.218611369517457]",False,False,lighter,False,0.5670532999793068,up,right,"(0, 0)","(0, 1)","(1, 0)","(0, 0)","(0, 0)","(0, 1)","(1, 0)","(0, 0)"
230,interactor,231,9.918147847003105,0.23122853770147922,0.335,135_bottom_r,False,,,3.858369000023231,True,"[0.5662285377014793, 0.5662285377014793, 0.5662285377014793]",True,False,lighter,True,0.5339699999894947,left,right,"(0, 0)","(1, 1)","(0, 0)","(0, 0)","(1, 0)","(0, 1)","(0, 0)","(0, 0)"
231,interactor,232,9.328608064297974,0.17735553694483963,0.0,45_bottom_l,False,,,3.857973199978005,True,"[0.17735553694483963, 0.17735553694483963, 0.17735553694483963]",True,False,lighter,,0.46688379999250174,right,left,"(0, 0)","(0, 0)","(0, 0)","(1, 1)","(1, 0)","(0, 0)","(0, 0)","(0, 1)"
232,interactor,233,9.142295511759087,0.26575990227603397,-0.168,135_top_u,False,,,3.8569378000102006,True,"[0.09775990227603396, 0.09775990227603396, 0.09775990227603396]",True,False,darker,True,0.9498874000273645,down,up,"(1, 1)","(0, 0)","(0, 0)","(0, 0)","(0, 1)","(1, 0)","(0, 0)","(0, 0)"
233,empty,234,9.298203128193387,0.06376015032947101,0.0,none_r,False,,,3.8589296999853104,True,"[0.06376015032947101, 0.06376015032947101, 0.06376015032947101]",True,True,darker,,0.4987733000307344,left,right,"(0, 0)","(1, 1)","(0, 0)","(0, 0)","(0, 0)","(1, 1)","(0, 0)","(0, 0)"
234,empty,235,9.360984906747783,0.2905185162537167,0.335,none_l,True,3.5737100999685936,left,3.8409912000061013,True,"[0.6255185162537167, 0.6255185162537167, 0.6255185162537167]",False,False,lighter,True,0.7165935999946669,right,down,"(0, 0)","(0, 0)","(0, 1)","(1, 0)","(0, 0)","(0, 0)","(0, 1)","(1, 0)"
235,empty,236,9.5346534072821,0.4933826037815977,-0.168,none_r,False,,,3.857634899963159,True,"[0.32538260378159767, 0.32538260378159767, 0.32538260378159767]",True,True,lighter,False,0.4663897000136785,left,right,"(0, 0)","(1, 1)","(0, 0)","(0, 0)","(0, 0)","(1, 1)","(0, 0)","(0, 0)"
236,empty,237,9.658608119486301,-0.009594846981851812,-0.335,none_r,True,3.574542200018186,right,3.8407279000384733,True,"[-0.34459484698185183, -0.34459484698185183, -0.34459484698185183]",False,False,darker,True,0.650342799955979,left,down,"(0, 0)","(1, 0)","(0, 1)","(0, 0)","(0, 0)","(1, 0)","(0, 1)","(0, 0)"
237,empty,238,9.577067285462203,0.15535234640800671,-0.168,none_u,False,,,3.856000399973709,True,"[-0.012647653591993296, -0.012647653591993296, -0.012647653591993296]",True,True,darker,True,0.6671817000024021,down,up,"(1, 1)","(0, 0)","(0, 0)","(0, 0)","(1, 1)","(0, 0)","(0, 0)","(0, 0)"
238,interactor,239,9.01620855417181,0.20505182908808642,0.168,135_top_u,False,,,3.859418799984269,True,"[0.37305182908808643, 0.37305182908808643, 0.37305182908808643]",True,False,lighter,True,0.5993814999819733,down,up,"(1, 1)","(0, 0)","(0, 0)","(0, 0)","(0, 1)","(1, 0)","(0, 0)","(0, 0)"
239,interactor,240,9.589329393808187,-0.01911357538895392,0.0,135_bottom_d,False,,,3.8581014000228606,True,"[-0.01911357538895392, -0.01911357538895392, -0.01911357538895392]",True,False,darker,,0.817420499981381,up,down,"(0, 0)","(0, 0)","(1, 1)","(0, 0)","(0, 0)","(0, 0)","(0, 1)","(1, 0)"
240,interactor,241,8.972115623805811,0.015965079221611833,-0.335,135_bottom_r,False,,,3.85726199997589,True,"[-0.3190349207783882, -0.3190349207783882, -0.3190349207783882]",True,False,darker,True,0.618393900047522,left,right,"(0, 0)","(1, 1)","(0, 0)","(0, 0)","(1, 0)","(0, 1)","(0, 0)","(0, 0)"
241,empty,242,9.991483991306366,0.22655116523322083,0.335,none_u,False,,,3.8590290999854915,True,"[0.5615511652332208, 0.5615511652332208, 0.5615511652332208]",True,True,lighter,True,0.4173268000013195,down,up,"(1, 1)","(0, 0)","(0, 0)","(0, 0)","(1, 1)","(0, 0)","(0, 0)","(0, 0)"
242,interactor,243,9.661802938940932,-0.04903197108362353,-0.168,135_bottom_r,False,,,3.857316899986472,True,"[-0.21703197108362354, -0.21703197108362354, -0.21703197108362354]",True,False,darker,True,0.6179992000106722,left,right,"(0, 0)","(1, 1)","(0, 0)","(0, 0)","(1, 0)","(0, 1)","(0, 0)","(0, 0)"
243,interactor,244,9.122165835485113,0.4026299201030209,0.168,135_bottom_d,False,,,3.858084700012114,True,"[0.5706299201030209, 0.5706299201030209, 0.5706299201030209]",True,False,lighter,True,0.4839190000202507,up,down,"(0, 0)","(0, 0)","(1, 1)","(0, 0)","(0, 0)","(0, 0)","(0, 1)","(1, 0)"
244,empty,245,9.671415956234329,-0.17291534003695272,0.168,none_l,False,,,3.857464400003664,True,"[-0.004915340036952709, -0.004915340036952709, -0.004915340036952709]",True,True,darker,False,1.5344861000194214,right,left,"(0, 0)","(0, 0)","(0, 0)","(1, 1)","(0, 0)","(0, 0)","(0, 0)","(1, 1)"
245,empty,246,9.448355214166169,0.38599611821267166,-0.335,none_u,True,3.574644799984526,left,3.841805199976079,True,"[0.05099611821267164, 0.05099611821267164, 0.05099611821267164]",False,False,lighter,False,1.184902000008151,down,left,"(1, 0)","(0, 0)","(0, 0)","(0, 1)","(1, 0)","(0, 0)","(0, 0)","(0, 1)"
246,empty,247,9.607515453460675,0.11761029702744216,0.335,none_l,False,,,3.857773299969267,True,"[0.45261029702744215, 0.45261029702744215, 0.45261029702744215]",True,True,lighter,True,0.4990074000088498,right,left,"(0, 0)","(0, 0)","(0, 0)","(1, 1)","(0, 0)","(0, 0)","(0, 0)","(1, 1)"
247,interactor,248,9.585224370240883,0.11663087719150872,-0.335,45_top_r,True,3.5738663999945857,,3.8410735999932513,True,"[-0.2183691228084913, -0.2183691228084913, -0.2183691228084913]",False,True,darker,True,0.6012222000281326,left,down,"(0, 0)","(1, 0)","(0, 1)","(0, 0)","(0, 0)","(0, 0)","(1, 1)","(0, 0)"
248,empty,249,9.189472874904398,0.45171439165204863,-0.168,none_r,True,3.575059800001327,left,3.8418022000114433,True,"[0.2837143916520486, 0.2837143916520486, 0.2837143916520486]",False,False,darker,True,0.5840467999805696,left,up,"(0, 1)","(1, 0)","(0, 0)","(0, 0)","(0, 1)","(1, 0)","(0, 0)","(0, 0)"
249,interactor,250,9.826828473726298,0.26988387896277544,-0.335,135_top_u,True,3.5728771000285633,,3.8576961000217125,True,"[-0.06511612103722458, -0.06511612103722458, -0.06511612103722458]",False,True,darker,True,0.8013284999760799,down,right,"(1, 0)","(0, 1)","(0, 0)","(0, 0)","(0, 0)","(1, 1)","(0, 0)","(0, 0)"
250,interactor,251,9.414936756729354,0.06726490960032815,0.168,45_bottom_d,False,,,3.859705099952407,True,"[0.23526490960032814, 0.23526490960032814, 0.23526490960032814]",True,False,lighter,True,0.5663871000288054,up,down,"(0, 0)","(0, 0)","(1, 1)","(0, 0)","(0, 0)","(1, 0)","(0, 1)","(0, 0)"
251,empty,252,9.639231916504716,0.13613074432681108,0.0,none_r,False,,,3.8585373999667354,True,"[0.13613074432681108, 0.13613074432681108, 0.13613074432681108]",True,True,darker,,0.7991994000039995,left,right,"(0, 0)","(1, 1)","(0, 0)","(0, 0)","(0, 0)","(1, 1)","(0, 0)","(0, 0)"
252,interactor,253,9.724680209755903,-0.032820290375322275,-0.335,135_bottom_r,True,3.5746384999947622,,3.842929999984335,True,"[-0.36782029037532227, -0.36782029037532227, -0.36782029037532227]",False,True,darker,True,0.6155635000322945,left,up,"(0, 1)","(1, 0)","(0, 0)","(0, 0)","(1, 1)","(0, 0)","(0, 0)","(0, 0)"
253,empty,254,10.109341079602341,0.4150575434559426,-0.168,none_u,True,3.574096800002735,right,3.85736409999663,True,"[0.24705754345594258, 0.24705754345594258, 0.24705754345594258]",False,False,lighter,False,0.4682744999881834,down,right,"(1, 0)","(0, 1)","(0, 0)","(0, 0)","(1, 0)","(0, 1)","(0, 0)","(0, 0)"
254,interactor,255,9.209820907247831,0.27373991096848227,0.0,45_top_u,True,3.57376200001454,,3.8420997000066563,True,"[0.27373991096848227, 0.27373991096848227, 0.27373991096848227]",False,True,lighter,,0.4996787999989465,down,left,"(1, 0)","(0, 0)","(0, 0)","(0, 1)","(0, 0)","(0, 0)","(0, 0)","(1, 1)"
255,interactor,256,9.914374804563499,0.2769716060997648,0.0,135_bottom_d,True,3.5741417999961413,,3.8588193000177853,True,"[0.2769716060997648, 0.2769716060997648, 0.2769716060997648]",False,True,lighter,,0.6334049999713898,up,left,"(0, 0)","(0, 0)","(1, 0)","(0, 1)","(0, 0)","(0, 0)","(0, 0)","(1, 1)"
256,interactor,257,9.189032986734414,0.4282948810950561,-0.168,45_bottom_d,True,3.573881699994672,,3.841456800000742,True,"[0.26029488109505605, 0.26029488109505605, 0.26029488109505605]",False,True,lighter,False,0.8830050000105985,up,right,"(0, 0)","(0, 1)","(1, 0)","(0, 0)","(0, 0)","(1, 1)","(0, 0)","(0, 0)"
257,empty,258,9.205646126717118,-0.14212047638341632,-0.168,none_d,False,,,3.8573067999677733,True,"[-0.31012047638341633, -0.31012047638341633, -0.31012047638341633]",True,True,darker,True,0.6515689000370912,up,down,"(0, 0)","(0, 0)","(1, 1)","(0, 0)","(0, 0)","(0, 0)","(1, 1)","(0, 0)"
258,empty,259,9.499473184365657,0.13605197578850386,0.0,none_d,True,3.5753605000209063,right,3.841764200013131,True,"[0.13605197578850386, 0.13605197578850386, 0.13605197578850386]",False,False,lighter,,0.5840540999779478,up,left,"(0, 0)","(0, 0)","(1, 0)","(0, 1)","(0, 0)","(0, 0)","(1, 0)","(0, 1)"
259,empty,260,9.580530959987781,0.0971135443817174,-0.335,none_l,False,,,3.857902300020214,True,"[-0.23788645561828262, -0.23788645561828262, -0.23788645561828262]",True,True,darker,True,0.6160958999535069,right,left,"(0, 0)","(0, 0)","(0, 0)","(1, 1)","(0, 0)","(0, 0)","(0, 0)","(1, 1)"
260,interactor,261,9.456120743973377,0.19246934706776395,0.168,45_bottom_l,False,,,3.8585020000464283,True,"[0.36046934706776396, 0.36046934706776396, 0.36046934706776396]",True,False,lighter,True,0.48228739999467507,right,left,"(0, 0)","(0, 0)","(0, 0)","(1, 1)","(1, 0)","(0, 0)","(0, 0)","(0, 1)"
261,empty,262,9.863766459694212,0.17144911445482344,-0.335,none_u,True,3.575394099985715,right,3.857935299980454,True,"[-0.16355088554517658, -0.16355088554517658, -0.16355088554517658]",False,False,darker,True,0.6520645000273362,down,right,"(1, 0)","(0, 1)","(0, 0)","(0, 0)","(1, 0)","(0, 1)","(0, 0)","(0, 0)"
262,empty,263,9.488437552616633,0.00948409966714972,-0.335,none_u,False,,,3.8578880000277422,True,"[-0.32551590033285027, -0.32551590033285027, -0.32551590033285027]",True,True,darker,True,0.6009903000085615,down,up,"(1, 1)","(0, 0)","(0, 0)","(0, 0)","(1, 1)","(0, 0)","(0, 0)","(0, 0)"
263,interactor,264,9.58910470576174,0.27487684755302766,-0.335,135_bottom_r,False,,,3.8569555999711156,True,"[-0.06012315244697236, -0.06012315244697236, -0.06012315244697236]",True,False,darker,True,0.5507047999999486,left,right,"(0, 0)","(1, 1)","(0, 0)","(0, 0)","(1, 0)","(0, 1)","(0, 0)","(0, 0)"
264,interactor,265,9.645476839605799,0.2245525582688938,0.168,45_bottom_l,False,,,3.8577279999735765,True,"[0.3925525582688938, 0.3925525582688938, 0.3925525582688938]",True,False,lighter,True,0.5175289000035264,right,left,"(0, 0)","(0, 0)","(0, 0)","(1, 1)","(1, 0)","(0, 0)","(0, 0)","(0, 1)"
265,interactor,266,9.441000208170905,0.13064740377018727,0.168,45_bottom_d,True,3.573029699968174,,3.8416640000068583,True,"[0.2986474037701873, 0.2986474037701873, 0.2986474037701873]",False,True,lighter,True,0.7154354999656789,up,right,"(0, 0)","(0, 1)","(1, 0)","(0, 0)","(0, 0)","(1, 1)","(0, 0)","(0, 0)"
266,empty,267,9.399492382913213,-0.10036186739667194,0.335,none_r,True,3.5746746999793686,left,3.8397888999897987,True,"[0.23463813260332808, 0.23463813260332808, 0.23463813260332808]",False,False,lighter,True,0.7019360000267625,left,up,"(0, 1)","(1, 0)","(0, 0)","(0, 0)","(0, 1)","(1, 0)","(0, 0)","(0, 0)"
267,empty,268,9.63582236165411,0.20454335179975563,-0.168,none_u,True,3.574611299962271,left,3.8408542999532074,True,"[0.036543351799755625, 0.036543351799755625, 0.036543351799755625]",False,False,lighter,False,0.8989457000279799,down,left,"(1, 0)","(0, 0)","(0, 0)","(0, 1)","(1, 0)","(0, 0)","(0, 0)","(0, 1)"
268,interactor,269,9.188621718117902,0.10563564056559976,-0.168,45_top_u,True,3.573375499981921,,3.8409302000072785,True,"[-0.062364359434400246, -0.062364359434400246, -0.062364359434400246]",False,True,darker,True,0.5170479000080377,down,left,"(1, 0)","(0, 0)","(0, 0)","(0, 1)","(0, 0)","(0, 0)","(0, 0)","(1, 1)"
269,interactor,270,9.844985220383203,-0.13791684050948835,-0.335,135_top_l,False,,,3.8580051999888383,True,"[-0.47291684050948835, -0.47291684050948835, -0.47291684050948835]",True,False,darker,True,0.5842506000190042,right,left,"(0, 0)","(0, 0)","(0, 0)","(1, 1)","(0, 0)","(0, 0)","(1, 0)","(0, 1)"
270,empty,271,9.724932643377759,0.2524255779561481,0.168,none_l,False,,,3.8597992000286467,True,"[0.4204255779561481, 0.4204255779561481, 0.4204255779561481]",True,True,lighter,True,0.4667108000139706,right,left,"(0, 0)","(0, 0)","(0, 0)","(1, 1)","(0, 0)","(0, 0)","(0, 0)","(1, 1)"
271,empty,272,9.489085951691928,0.7575682887448121,0.335,none_d,True,3.57362069998635,left,3.840747600013856,True,"[1.092568288744812, 1.092568288744812, 1.092568288744812]",False,False,lighter,True,0.4838554000016302,up,right,"(0, 0)","(0, 1)","(1, 0)","(0, 0)","(0, 0)","(0, 1)","(1, 0)","(0, 0)"
272,interactor,273,9.287026563348993,0.189608131995402,0.0,45_top_u,True,3.5744084999896586,,3.8418249000096694,True,"[0.189608131995402, 0.189608131995402, 0.189608131995402]",False,True,lighter,,0.4852377999923192,down,left,"(1, 0)","(0, 0)","(0, 0)","(0, 1)","(0, 0)","(0, 0)","(0, 0)","(1, 1)"
273,empty,274,9.45606471217252,0.3491952358898023,-0.335,none_u,False,,,3.856736399990041,True,"[0.01419523588980226, 0.01419523588980226, 0.01419523588980226]",True,True,darker,True,0.9014298999682069,down,up,"(1, 1)","(0, 0)","(0, 0)","(0, 0)","(1, 1)","(0, 0)","(0, 0)","(0, 0)"
274,interactor,275,9.389403253621051,0.1306027437552011,-0.335,45_top_r,True,3.57383559999289,,3.8402736999560148,True,"[-0.20439725624479893, -0.20439725624479893, -0.20439725624479893]",False,True,lighter,False,0.5180583000183105,left,down,"(0, 0)","(1, 0)","(0, 1)","(0, 0)","(0, 0)","(0, 0)","(1, 1)","(0, 0)"
275,empty,276,9.503768012586782,0.22365669752656872,0.168,none_d,False,,,3.858025500026997,True,"[0.39165669752656873, 0.39165669752656873, 0.39165669752656873]",True,True,lighter,True,0.6492604999803007,up,down,"(0, 0)","(0, 0)","(1, 1)","(0, 0)","(0, 0)","(0, 0)","(1, 1)","(0, 0)"
276,empty,277,9.940141128603038,0.44396877050022887,-0.168,none_l,False,,,3.8576083999942057,True,"[0.27596877050022883, 0.27596877050022883, 0.27596877050022883]",True,True,darker,True,0.782772800012026,right,left,"(0, 0)","(0, 0)","(0, 0)","(1, 1)","(0, 0)","(0, 0)","(0, 0)","(1, 1)"
277,empty,278,9.556523268987139,-0.07916318695538346,0.335,none_u,True,3.5752657999983057,left,3.8424112999928184,True,"[0.2558368130446166, 0.2558368130446166, 0.2558368130446166]",False,False,lighter,True,0.4666533999843523,down,left,"(1, 0)","(0, 0)","(0, 0)","(0, 1)","(1, 0)","(0, 0)","(0, 0)","(0, 1)"
278,interactor,279,9.157045975694478,0.12132945221679095,0.335,135_top_u,False,,,3.8572545999777503,True,"[0.456329452216791, 0.456329452216791, 0.456329452216791]",True,False,lighter,True,0.900920300045982,down,up,"(1, 1)","(0, 0)","(0, 0)","(0, 0)","(0, 1)","(1, 0)","(0, 0)","(0, 0)"
279,interactor,280,9.263274289603132,0.06946483412221006,-0.335,45_bottom_l,True,3.574558900028933,,3.8409849000163376,True,"[-0.26553516587778997, -0.26553516587778997, -0.26553516587778997]",False,True,darker,True,0.7008803999633528,right,up,"(0, 1)","(0, 0)","(0, 0)","(1, 0)","(1, 1)","(0, 0)","(0, 0)","(0, 0)"
280,empty,281,9.212396457919494,0.3111472558366422,-0.335,none_r,False,,,3.85857640003087,True,"[-0.02385274416335781, -0.02385274416335781, -0.02385274416335781]",True,True,darker,True,0.5675902999937534,left,right,"(0, 0)","(1, 1)","(0, 0)","(0, 0)","(0, 0)","(1, 1)","(0, 0)","(0, 0)"
281,interactor,282,9.369051771967436,-0.22343053975802515,-0.335,135_bottom_d,True,3.5739323000307195,,3.841299700026866,True,"[-0.5584305397580251, -0.5584305397580251, -0.5584305397580251]",False,True,darker,True,0.6171307999757119,up,left,"(0, 0)","(0, 0)","(1, 0)","(0, 1)","(0, 0)","(0, 0)","(0, 0)","(1, 1)"
282,interactor,283,9.186382065699197,0.11945342665731001,0.0,45_top_u,False,,,3.8575618999893777,True,"[0.11945342665731001, 0.11945342665731001, 0.11945342665731001]",True,False,lighter,,1.267782500013709,down,up,"(1, 1)","(0, 0)","(0, 0)","(0, 0)","(0, 1)","(0, 0)","(0, 0)","(1, 0)"
283,interactor,284,9.287533649905134,0.23530069126485165,-0.168,45_bottom_d,False,,,3.8580117999808863,True,"[0.06730069126485164, 0.06730069126485164, 0.06730069126485164]",True,False,darker,True,0.667314600024838,up,down,"(0, 0)","(0, 0)","(1, 1)","(0, 0)","(0, 0)","(1, 0)","(0, 1)","(0, 0)"
284,empty,285,9.221919299915644,0.31081415421980096,-0.335,none_u,False,,,3.858916800003499,True,"[-0.024185845780199056, -0.024185845780199056, -0.024185845780199056]",True,True,darker,True,0.5508234999724664,down,up,"(1, 1)","(0, 0)","(0, 0)","(0, 0)","(1, 1)","(0, 0)","(0, 0)","(0, 0)"
285,interactor,286,9.262540484740276,0.4286116563427663,0.0,135_top_u,False,,,3.8587165999924764,True,"[0.4286116563427663, 0.4286116563427663, 0.4286116563427663]",True,False,lighter,,0.48301540000829846,down,up,"(1, 1)","(0, 0)","(0, 0)","(0, 0)","(0, 1)","(1, 0)","(0, 0)","(0, 0)"
286,interactor,287,9.026511090905805,0.20831285603742494,0.168,135_top_u,True,3.574710100016091,,3.841139599971939,True,"[0.3763128560374249, 0.3763128560374249, 0.3763128560374249]",False,True,lighter,True,0.4501997000188567,down,right,"(1, 0)","(0, 1)","(0, 0)","(0, 0)","(0, 0)","(1, 1)","(0, 0)","(0, 0)"
287,empty,288,9.51502532919673,0.17923600712092377,-0.168,none_d,False,,,3.858535600011237,True,"[0.011236007120923763, 0.011236007120923763, 0.011236007120923763]",True,True,,False,,up,down,"(0, 0)","(0, 0)","(1, 1)","(0, 0)","(0, 0)","(0, 0)","(1, 1)","(0, 0)"
288,empty,289,9.768423442420106,0.12266169555853262,0.335,none_u,True,3.57454990001861,right,3.8409724999801256,True,"[0.45766169555853264, 0.45766169555853264, 0.45766169555853264]",False,False,lighter,True,0.8347662999876775,down,right,"(1, 0)","(0, 1)","(0, 0)","(0, 0)","(1, 0)","(0, 1)","(0, 0)","(0, 0)"
289,empty,290,9.354623688936474,-0.1367822491861652,0.335,none_r,False,,,3.859340000024531,True,"[0.19821775081383483, 0.19821775081383483, 0.19821775081383483]",True,True,lighter,True,0.39870999997947365,left,right,"(0, 0)","(1, 1)","(0, 0)","(0, 0)","(0, 0)","(1, 1)","(0, 0)","(0, 0)"
290,interactor,291,10.060230095303018,0.10753786198564567,0.335,45_bottom_l,False,,,3.8585702999844216,True,"[0.4425378619856457, 0.4425378619856457, 0.4425378619856457]",True,False,lighter,True,0.4668485000147484,right,left,"(0, 0)","(0, 0)","(0, 0)","(1, 1)","(1, 0)","(0, 0)","(0, 0)","(0, 1)"
291,empty,292,9.25459851423663,0.08518684012850311,0.0,none_d,True,3.5745450999820605,left,3.8419434999814257,True,"[0.08518684012850311, 0.08518684012850311, 0.08518684012850311]",False,False,lighter,,0.7499891999759711,up,right,"(0, 0)","(0, 1)","(1, 0)","(0, 0)","(0, 0)","(0, 1)","(1, 0)","(0, 0)"
292,empty,293,9.669404132585989,0.12998904663472996,-0.168,none_d,False,,,3.8582698000245728,True,"[-0.03801095336527005, -0.03801095336527005, -0.03801095336527005]",True,True,lighter,False,0.7826946999994107,up,down,"(0, 0)","(0, 0)","(1, 1)","(0, 0)","(0, 0)","(0, 0)","(1, 1)","(0, 0)"
293,empty,294,9.647155416000121,0.19552266266570204,-0.168,none_r,False,,,3.8588397999992594,True,"[0.027522662665702025, 0.027522662665702025, 0.027522662665702025]",True,True,darker,True,0.6663704999955371,left,right,"(0, 0)","(1, 1)","(0, 0)","(0, 0)","(0, 0)","(1, 1)","(0, 0)","(0, 0)"
294,interactor,295,9.868389077493974,0.14986204684262036,0.0,135_bottom_r,False,,,3.859102200018242,True,"[0.14986204684262036, 0.14986204684262036, 0.14986204684262036]",True,False,lighter,,0.8999321999726817,left,right,"(0, 0)","(1, 1)","(0, 0)","(0, 0)","(1, 0)","(0, 1)","(0, 0)","(0, 0)"
295,empty,296,9.617749458503576,0.037875803280444334,-0.335,none_d,False,,,3.8587899999693036,True,"[-0.2971241967195557, -0.2971241967195557, -0.2971241967195557]",True,True,darker,True,0.6157673000125214,up,down,"(0, 0)","(0, 0)","(1, 1)","(0, 0)","(0, 0)","(0, 0)","(1, 1)","(0, 0)"
296,interactor,297,8.969013833692326,0.46894844639926514,-0.335,45_bottom_d,False,,,3.857603200012818,True,"[0.13394844639926512, 0.13394844639926512, 0.13394844639926512]",True,False,lighter,False,0.7019929999951273,up,down,"(0, 0)","(0, 0)","(1, 1)","(0, 0)","(0, 0)","(1, 0)","(0, 1)","(0, 0)"
297,interactor,298,9.146442038814083,0.40099268101493457,0.335,135_top_u,False,,,3.857090600009542,True,"[0.7359926810149346, 0.7359926810149346, 0.7359926810149346]",True,False,lighter,True,0.4846655000001192,down,up,"(1, 1)","(0, 0)","(0, 0)","(0, 0)","(0, 1)","(1, 0)","(0, 0)","(0, 0)"
298,interactor,299,9.445362418269832,0.23696594226457973,-0.168,45_bottom_l,False,,,3.8575617999886163,True,"[0.06896594226457972, 0.06896594226457972, 0.06896594226457972]",True,False,lighter,False,0.6508473000139929,right,left,"(0, 0)","(0, 0)","(0, 0)","(1, 1)","(1, 0)","(0, 0)","(0, 0)","(0, 1)"
299,empty,300,9.732421894008413,0.14822035368229194,0.168,none_u,False,,,3.8589890000293963,True,"[0.31622035368229195, 0.31622035368229195, 0.31622035368229195]",True,True,lighter,True,0.4506828999728896,down,up,"(1, 1)","(0, 0)","(0, 0)","(0, 0)","(1, 1)","(0, 0)","(0, 0)","(0, 0)"
300,interactor,301,9.647442945686304,0.27742096546760336,0.0,45_top_r,False,,,3.867499799991492,True,"[0.27742096546760336, 0.27742096546760336, 0.27742096546760336]",True,False,darker,,0.7989458999945782,left,right,"(0, 0)","(1, 1)","(0, 0)","(0, 0)","(0, 0)","(0, 1)","(1, 0)","(0, 0)"
301,interactor,302,9.713636539536926,0.18414046814956825,0.335,45_top_r,False,,,3.858405100007076,True,"[0.5191404681495683, 0.5191404681495683, 0.5191404681495683]",True,False,lighter,True,0.43343769997591153,left,right,"(0, 0)","(1, 1)","(0, 0)","(0, 0)","(0, 0)","(0, 1)","(1, 0)","(0, 0)"
302,interactor,303,9.395902575882191,-0.08826564137913456,0.168,135_top_u,True,3.574987299973145,,3.84152679995168,True,"[0.07973435862086545, 0.07973435862086545, 0.07973435862086545]",False,True,lighter,True,0.40025669999886304,down,right,"(1, 0)","(0, 1)","(0, 0)","(0, 0)","(0, 0)","(1, 1)","(0, 0)","(0, 0)"
303,interactor,304,9.285932509723526,-0.20438947061270726,0.335,45_bottom_l,True,3.5748155000037514,,3.8403028000029735,True,"[0.13061052938729276, 0.13061052938729276, 0.13061052938729276]",False,True,lighter,True,0.4676443000207655,right,up,"(0, 1)","(0, 0)","(0, 0)","(1, 0)","(1, 1)","(0, 0)","(0, 0)","(0, 0)"
304,empty,305,9.527062463922961,0.06201877047214044,0.335,none_u,True,3.5744163999916054,right,3.8411616000230424,True,"[0.39701877047214046, 0.39701877047214046, 0.39701877047214046]",False,False,lighter,True,0.383843399991747,down,right,"(1, 0)","(0, 1)","(0, 0)","(0, 0)","(1, 0)","(0, 1)","(0, 0)","(0, 0)"
305,empty,306,9.025816285180536,-0.10758907276132454,-0.335,none_l,True,3.57352879998507,right,3.839557799976319,True,"[-0.44258907276132453, -0.44258907276132453, -0.44258907276132453]",False,False,darker,True,0.7012106000329368,right,up,"(0, 1)","(0, 0)","(0, 0)","(1, 0)","(0, 1)","(0, 0)","(0, 0)","(1, 0)"
306,interactor,307,9.471205717911923,0.10766198552503725,0.168,45_top_r,False,,,3.8567448999965563,True,"[0.2756619855250373, 0.2756619855250373, 0.2756619855250373]",True,False,lighter,True,0.5182956000207923,left,right,"(0, 0)","(1, 1)","(0, 0)","(0, 0)","(0, 0)","(0, 1)","(1, 0)","(0, 0)"
307,empty,308,9.56043560924576,0.14769373236165864,0.0,none_r,True,3.574915000004694,right,3.8429707000032067,True,"[0.14769373236165864, 0.14769373236165864, 0.14769373236165864]",False,False,lighter,,0.8332347000250593,left,down,"(0, 0)","(1, 0)","(0, 1)","(0, 0)","(0, 0)","(1, 0)","(0, 1)","(0, 0)"
308,interactor,309,9.448686948637318,0.17538995636428018,-0.335,45_bottom_d,True,3.5731801000074483,,3.84056410001358,True,"[-0.15961004363571984, -0.15961004363571984, -0.15961004363571984]",False,True,darker,True,0.5840408999938518,up,right,"(0, 0)","(0, 1)","(1, 0)","(0, 0)","(0, 0)","(1, 1)","(0, 0)","(0, 0)"
309,empty,310,9.357092653610662,0.03721397268417488,-0.168,none_d,True,3.574599100043997,right,3.842047000012826,True,"[-0.13078602731582512, -0.13078602731582512, -0.13078602731582512]",False,False,darker,True,1.2330493000335991,up,left,"(0, 0)","(0, 0)","(1, 0)","(0, 1)","(0, 0)","(0, 0)","(1, 0)","(0, 1)"
310,interactor,311,9.547013028188967,0.6051451840158383,0.0,45_top_r,False,,,3.8576100999489427,True,"[0.6051451840158383, 0.6051451840158383, 0.6051451840158383]",True,False,lighter,,0.9331430000020191,left,right,"(0, 0)","(1, 1)","(0, 0)","(0, 0)","(0, 0)","(0, 1)","(1, 0)","(0, 0)"
311,empty,312,9.834695672971423,0.2240768260011079,-0.335,none_l,False,,,3.858984499995131,True,"[-0.11092317399889212, -0.11092317399889212, -0.11092317399889212]",True,True,darker,True,0.5490025000181049,right,left,"(0, 0)","(0, 0)","(0, 0)","(1, 1)","(0, 0)","(0, 0)","(0, 0)","(1, 1)"
312,empty,313,9.415060454630407,0.20183218862499835,0.0,none_d,False,,,3.8575098000001162,True,"[0.20183218862499835, 0.20183218862499835, 0.20183218862499835]",True,True,lighter,,0.816072899964638,up,down,"(0, 0)","(0, 0)","(1, 1)","(0, 0)","(0, 0)","(0, 0)","(1, 1)","(0, 0)"
313,interactor,314,9.689559464356513,0.1388915625894192,0.0,135_bottom_r,False,,,3.857690699980594,True,"[0.1388915625894192, 0.1388915625894192, 0.1388915625894192]",True,False,darker,,1.3334090000134893,left,right,"(0, 0)","(1, 1)","(0, 0)","(0, 0)","(1, 0)","(0, 1)","(0, 0)","(0, 0)"
314,empty,315,9.433923676814238,0.18699229809945905,-0.168,none_r,False,,,3.8578641999629326,True,"[0.018992298099459043, 0.018992298099459043, 0.018992298099459043]",True,True,darker,True,0.6001150000374764,left,right,"(0, 0)","(1, 1)","(0, 0)","(0, 0)","(0, 0)","(1, 1)","(0, 0)","(0, 0)"
315,empty,316,9.128653815500186,0.34559502433675865,-0.168,none_d,True,3.5740455000195652,left,3.840235900017433,True,"[0.17759502433675864, 0.17759502433675864, 0.17759502433675864]",False,False,lighter,False,0.5513708000071347,up,right,"(0, 0)","(0, 1)","(1, 0)","(0, 0)","(0, 0)","(0, 1)","(1, 0)","(0, 0)"
316,empty,317,9.612337256436435,-0.02494792531944509,0.168,none_u,False,,,3.8575844000442885,True,"[0.14305207468055492, 0.14305207468055492, 0.14305207468055492]",True,True,lighter,True,0.7335478999884799,down,up,"(1, 1)","(0, 0)","(0, 0)","(0, 0)","(1, 1)","(0, 0)","(0, 0)","(0, 0)"
317,interactor,318,9.478833944936943,-0.06419052252842294,-0.168,135_top_u,True,3.574148099985905,,3.8416306999861263,True,"[-0.23219052252842295, -0.23219052252842295, -0.23219052252842295]",False,True,darker,True,0.782556900056079,down,right,"(1, 0)","(0, 1)","(0, 0)","(0, 0)","(0, 0)","(1, 1)","(0, 0)","(0, 0)"
318,interactor,319,9.477449368351127,0.0989819927736371,0.168,135_bottom_d,True,3.574203100055456,,3.8406819000374526,True,"[0.2669819927736371, 0.2669819927736371, 0.2669819927736371]",False,True,lighter,True,0.4686123999999836,up,left,"(0, 0)","(0, 0)","(1, 0)","(0, 1)","(0, 0)","(0, 0)","(0, 0)","(1, 1)"
319,empty,320,9.157284859867785,0.6365060697696056,0.0,none_d,False,,,3.8586295999702998,True,"[0.6365060697696056, 0.6365060697696056, 0.6365060697696056]",True,True,lighter,,0.5326906000263989,up,down,"(0, 0)","(0, 0)","(1, 1)","(0, 0)","(0, 0)","(0, 0)","(1, 1)","(0, 0)"
320,interactor,321,9.710261054303867,0.19457549666743668,0.335,135_top_u,False,,,3.8592070000013337,True,"[0.5295754966674366, 0.5295754966674366, 0.5295754966674366]",True,False,lighter,True,0.6173616999876685,down,up,"(1, 1)","(0, 0)","(0, 0)","(0, 0)","(0, 1)","(1, 0)","(0, 0)","(0, 0)"
321,empty,322,9.071369983561546,0.12446017922801238,-0.168,none_u,True,3.575847000000067,right,3.8421683000051416,True,"[-0.04353982077198763, -0.04353982077198763, -0.04353982077198763]",False,False,darker,True,0.8329977000248618,down,right,"(1, 0)","(0, 1)","(0, 0)","(0, 0)","(1, 0)","(0, 1)","(0, 0)","(0, 0)"
322,empty,323,9.455190607764159,0.08412228157833679,0.0,none_d,False,,,3.857162399974186,True,"[0.08412228157833679, 0.08412228157833679, 0.08412228157833679]",True,True,lighter,,0.3683940999908373,up,down,"(0, 0)","(0, 0)","(1, 1)","(0, 0)","(0, 0)","(0, 0)","(1, 1)","(0, 0)"
323,empty,324,9.21501535258107,0.09802275378945718,-0.335,none_l,True,3.573835399991367,left,3.8399599999538623,True,"[-0.23697724621054284, -0.23697724621054284, -0.23697724621054284]",False,False,darker,True,0.6353978000115603,right,down,"(0, 0)","(0, 0)","(0, 1)","(1, 0)","(0, 0)","(0, 0)","(0, 1)","(1, 0)"
324,interactor,325,9.505727220996603,0.19084143325319208,0.0,135_top_l,False,,,3.857419400010258,True,"[0.19084143325319208, 0.19084143325319208, 0.19084143325319208]",True,False,lighter,,0.4677856999915093,right,left,"(0, 0)","(0, 0)","(0, 0)","(1, 1)","(0, 0)","(0, 0)","(1, 0)","(0, 1)"
325,interactor,326,9.336766198008453,0.2951462527284752,0.168,135_top_l,True,3.574665800028015,,3.8408586000441574,True,"[0.4631462527284752, 0.4631462527284752, 0.4631462527284752]",False,True,lighter,True,0.568213599966839,right,down,"(0, 0)","(0, 0)","(0, 1)","(1, 0)","(0, 0)","(0, 0)","(1, 1)","(0, 0)"
326,empty,327,8.802869991656344,0.03577824274465806,-0.335,none_u,False,,,3.859205499989912,True,"[-0.29922175725534195, -0.29922175725534195, -0.29922175725534195]",True,True,darker,True,0.5658432000200264,down,up,"(1, 1)","(0, 0)","(0, 0)","(0, 0)","(1, 1)","(0, 0)","(0, 0)","(0, 0)"
327,interactor,328,9.486471578877262,0.34953499818336364,-0.335,45_bottom_l,False,,,3.858281099994201,True,"[0.014534998183363623, 0.014534998183363623, 0.014534998183363623]",True,False,darker,True,1.183324999990873,right,left,"(0, 0)","(0, 0)","(0, 0)","(1, 1)","(1, 0)","(0, 0)","(0, 0)","(0, 1)"
328,interactor,329,9.283475867832712,0.2793329065904597,-0.335,135_bottom_r,True,3.574985100014601,,3.8414168000454083,True,"[-0.05566709340954035, -0.05566709340954035, -0.05566709340954035]",False,True,darker,True,0.7164428999531083,left,up,"(0, 1)","(1, 0)","(0, 0)","(0, 0)","(1, 1)","(0, 0)","(0, 0)","(0, 0)"
329,interactor,330,9.520645828773564,-0.2620793200981463,0.0,45_bottom_l,True,3.5761826999951154,,3.8424914000206627,True,"[-0.2620793200981463, -0.2620793200981463, -0.2620793200981463]",False,True,darker,,0.7173365000053309,right,up,"(0, 1)","(0, 0)","(0, 0)","(1, 0)","(1, 1)","(0, 0)","(0, 0)","(0, 0)"
330,empty,331,10.031286427498179,0.011623648804053976,0.335,none_r,False,,,3.859150500036776,True,"[0.346623648804054, 0.346623648804054, 0.346623648804054]",True,True,lighter,True,0.41766609996557236,left,right,"(0, 0)","(1, 1)","(0, 0)","(0, 0)","(0, 0)","(1, 1)","(0, 0)","(0, 0)"
331,interactor,332,9.743129013073071,0.17707874768573323,0.335,45_bottom_l,True,3.575599699979648,,3.842048500024248,True,"[0.5120787476857332, 0.5120787476857332, 0.5120787476857332]",False,True,lighter,True,0.6157379999640398,right,up,"(0, 1)","(0, 0)","(0, 0)","(1, 0)","(1, 1)","(0, 0)","(0, 0)","(0, 0)"
332,interactor,333,9.56256637561825,0.12639475594574728,0.335,45_bottom_d,False,,,3.858238100016024,True,"[0.4613947559457473, 0.4613947559457473, 0.4613947559457473]",True,False,lighter,True,0.6009374000132084,up,down,"(0, 0)","(0, 0)","(1, 1)","(0, 0)","(0, 0)","(1, 0)","(0, 1)","(0, 0)"
