trial_type,trial,ball_speed,ball_start_color,ball_color_change,interactor,bounce,bounce_moment,random_bounce_direction,target_onset,ball_change,target_color,abs_congruent,sim_congruent,response,accuracy,rt,start_pos,end_pos,abs_rfup,abs_rfright,abs_rfdown,abs_rfleft,sim_rfup,sim_rfright,sim_rfdown,sim_rfleft
empty,1,9.43219245056,0.638385813495,0.16,none_l,False,,,4.55487450026,True,"[0.48256337432975549, 0.48242232316399747, 0.48190496459526933]",True,True,,False,,right,left,"(0, 0)","(0, 0)","(0, 0)","(1, 1)","(0, 0)","(0, 0)","(0, 0)","(1, 1)"
interactor,2,9.55864874264,0.859636654254,0.0,135_top_u,False,,,4.55044999998,True,"[0.63672431537051732, 0.63656961038049098, 0.63600217124034186]",True,False,m,,,down,up,"(1, 1)","(0, 0)","(0, 0)","(0, 0)","(0, 1)","(1, 0)","(0, 0)","(0, 0)"
empty,3,9.56203149218,0.760619111083,-0.16,none_d,False,,,4.55073889997,True,"[0.0057827502139293774, 0.0056839268577051349, 0.0053214547727840067]",True,True,x,,,up,down,"(0, 0)","(0, 0)","(1, 1)","(0, 0)","(0, 0)","(0, 0)","(1, 1)","(0, 0)"
empty,4,8.99567384047,0.764514834011,0.16,none_u,False,,,4.5485224002,True,"[0.80303565420075684, 0.80286621924230417, 0.80224475236447934]",True,True,lighter,True,0.800651900005,down,up,"(1, 1)","(0, 0)","(0, 0)","(0, 0)","(1, 1)","(0, 0)","(0, 0)","(0, 0)"
interactor,5,9.2070227018,0.812479282267,-0.08,45_bottom_d,True,4.12495939992,,4.52484719967,True,"[0.31996329924139255, 0.31983664934249223, 0.31937211287395795]",False,True,lighter,False,0.899868499953,up,right,"(0, 0)","(0, 1)","(1, 0)","(0, 0)","(0, 0)","(1, 1)","(0, 0)","(0, 0)"
empty,6,9.19042630197,0.680108320887,-0.16,none_r,True,4.1248893002,right,4.52406690037,True,"[-0.17793121926194977, -0.17801377132248997, -0.17831656226828885]",False,False,darker,True,1.00054619974,left,down,"(0, 0)","(1, 0)","(0, 1)","(0, 0)","(0, 0)","(1, 0)","(0, 1)","(0, 0)"
empty,7,9.80594173184,0.79447060505,0.08,none_d,True,4.12515899958,left,4.52393829962,True,"[0.67448223464197099, 0.67432418548453832, 0.67374448034393564]",False,False,lighter,True,0.701297700405,up,right,"(0, 0)","(0, 1)","(1, 0)","(0, 0)","(0, 0)","(0, 1)","(1, 0)","(0, 0)"
interactor,8,9.31182154605,0.752603437265,0.0,135_top_l,True,4.12448240025,,4.52474489994,True,"[0.36923936726489903, 0.36910835305186729, 0.36862780880842383]",False,True,,False,,right,down,"(0, 0)","(0, 0)","(0, 1)","(1, 0)","(0, 0)","(0, 0)","(1, 1)","(0, 0)"
empty,9,9.51939145522,0.725300533579,0.16,none_d,False,,,4.54847740009,True,"[0.7021498893920195, 0.70198938974814418, 0.70140069652047865]",True,True,m,,,up,down,"(0, 0)","(0, 0)","(1, 1)","(0, 0)","(0, 0)","(0, 0)","(1, 1)","(0, 0)"
interactor,10,8.76104344529,0.601730162805,0.0,135_bottom_d,False,,,4.5490433001,True,"[0.0083633766969333223, 0.0082643247781410967, 0.0079010143534437027]",True,False,darker,,0.700319999829,up,down,"(0, 0)","(0, 0)","(1, 1)","(0, 0)","(0, 0)","(0, 0)","(0, 1)","(1, 0)"
empty,11,9.18691121162,0.746715000587,0.0,none_r,False,,,4.5518048997,True,"[0.35478641748078865, 0.35465668334580647, 0.35418083427338964]",True,True,darker,,0.826146500185,left,right,"(0, 0)","(1, 1)","(0, 0)","(0, 0)","(0, 0)","(1, 1)","(0, 0)","(0, 0)"
interactor,12,9.05664069858,0.640372278643,-0.16,45_bottom_l,True,4.12579159997,,4.52667370019,True,"[-0.26607640209578587, -0.26615114725771449, -0.26642530344626225]",False,True,darker,True,0.649149099831,right,up,"(0, 1)","(0, 0)","(0, 0)","(1, 0)","(1, 1)","(0, 0)","(0, 0)","(0, 0)"
interactor,13,9.75731265101,0.699408854949,0.16,45_bottom_d,False,,,4.55059900042,True,"[0.63614574330390838, 0.63599108955722072, 0.63542383837142369]",True,False,lighter,True,0.826456499752,up,down,"(0, 0)","(0, 0)","(1, 1)","(0, 0)","(0, 0)","(1, 0)","(0, 1)","(0, 0)"
interactor,14,9.25188602523,0.607533929951,-0.08,135_bottom_d,False,,,4.55164609989,True,"[-0.16126765601856041, -0.16135168394816535, -0.16165988820270283]",True,False,darker,True,0.949108299799,up,down,"(0, 0)","(0, 0)","(1, 1)","(0, 0)","(0, 0)","(0, 0)","(0, 1)","(1, 0)"
empty,15,9.66723044768,0.795431034491,-0.08,none_r,False,,,4.54942249972,True,"[0.27848255820769019, 0.27835958220144197, 0.27790852112557118]",True,True,darker,True,0.925350199919,left,right,"(0, 0)","(1, 1)","(0, 0)","(0, 0)","(0, 0)","(1, 1)","(0, 0)","(0, 0)"
interactor,16,8.90268933796,0.623265070766,-0.08,135_bottom_r,True,4.12586520007,,4.52500260016,True,"[-0.12577262973495684, -0.12585980141062547, -0.12617953654442915]",False,True,lighter,False,0.70038169995,left,up,"(0, 1)","(1, 0)","(0, 0)","(0, 0)","(1, 1)","(0, 0)","(0, 0)","(0, 0)"
empty,17,9.64987324903,0.916658417993,-0.08,none_r,True,4.12455249997,right,4.52507480001,True,"[0.57855783660440974, 0.578408283340067, 0.57785974010490215]",False,False,,False,,left,down,"(0, 0)","(1, 0)","(0, 1)","(0, 0)","(0, 0)","(1, 0)","(0, 1)","(0, 0)"
interactor,18,9.64618093779,0.86814157279,-0.16,45_top_u,False,,,4.54959270032,True,"[0.26082123526381351, 0.26069982349684939, 0.26025449986094884]",True,False,x,,,down,up,"(1, 1)","(0, 0)","(0, 0)","(0, 0)","(0, 1)","(0, 0)","(0, 0)","(1, 0)"
interactor,19,9.91783156788,0.672758218986,-0.08,45_bottom_d,True,4.12591860024,,4.54986200016,True,"[-0.012441468357141328, -0.012538677619185479, -0.012895229402416386]",False,True,,False,,up,right,"(0, 0)","(0, 1)","(1, 0)","(0, 0)","(0, 0)","(1, 1)","(0, 0)","(0, 0)"
empty,20,9.39978099665,0.774198075395,0.16,none_l,False,,,4.5501358998,True,"[0.82811445073742052, 0.82794279458416642, 0.82731318063320813]",True,True,x,,,right,left,"(0, 0)","(0, 0)","(0, 0)","(1, 1)","(0, 0)","(0, 0)","(0, 0)","(1, 1)"
interactor,21,9.35991195566,0.701177227412,0.08,135_bottom_d,True,4.12658530008,,4.52646439988,True,"[0.43977152634029615, 0.43963426519014548, 0.43913080793899506]",False,True,,False,,up,left,"(0, 0)","(0, 0)","(1, 0)","(0, 1)","(0, 0)","(0, 0)","(0, 0)","(1, 1)"
empty,22,9.49932601208,0.710988184654,-0.08,none_u,False,,,4.55057119997,True,"[0.076744542706912, 0.076639434361521541, 0.076253909698605682]",True,True,m,,,down,up,"(1, 1)","(0, 0)","(0, 0)","(0, 0)","(1, 1)","(0, 0)","(0, 0)","(0, 0)"
empty,23,9.59086448779,0.717119465468,0.16,none_l,True,4.12600179994,right,4.52681869967,True,"[0.6812415138242911, 0.68108286600672052, 0.68050096505334268]",False,False,lighter,True,0.475031500217,right,up,"(0, 1)","(0, 0)","(0, 0)","(1, 0)","(0, 1)","(0, 0)","(0, 0)","(1, 0)"
empty,24,9.42498793081,0.719485568693,0.16,none_d,True,4.12646180019,right,4.52686790004,True,"[0.68728357916045502, 0.68712439620539856, 0.68654053243262836]",False,False,lighter,True,0.600055899937,up,left,"(0, 0)","(0, 0)","(1, 0)","(0, 1)","(0, 0)","(0, 0)","(1, 0)","(0, 1)"
interactor,25,9.96976280176,0.619608152045,0.16,135_bottom_r,True,4.12441819999,,4.55035810033,True,"[0.43588140801543163, 0.43574449140775395, 0.43524229789661018]",False,True,darker,False,0.849782699719,left,up,"(0, 1)","(1, 0)","(0, 0)","(0, 0)","(1, 1)","(0, 0)","(0, 0)","(0, 0)"
interactor,26,9.0987835997,0.81472202003,0.0,45_bottom_d,True,4.12557819998,,4.5254687001,True,"[0.52339991047479373, 0.52325524247273125, 0.52272461778710499]",False,True,,False,,up,right,"(0, 0)","(0, 1)","(1, 0)","(0, 0)","(0, 0)","(1, 1)","(0, 0)","(0, 0)"
interactor,27,9.75134853233,0.730333576015,0.16,45_top_u,True,4.12466480024,,4.52449110011,True,"[0.71503689674667048, 0.71487525571813171, 0.71428237602995415]",False,True,m,,,down,left,"(1, 0)","(0, 0)","(0, 0)","(0, 1)","(0, 0)","(0, 0)","(0, 0)","(1, 1)"
interactor,28,9.39223902361,0.766136080576,-0.08,135_bottom_r,False,,,4.54999089986,True,"[0.20778187873870624, 0.20766516459520101, 0.20723707127240565]",True,False,darker,True,0.874842599966,left,right,"(0, 0)","(1, 1)","(0, 0)","(0, 0)","(1, 0)","(0, 1)","(0, 0)","(0, 0)"
empty,29,9.5255785646,0.795080215689,-0.08,none_l,True,4.1255156002,right,4.52615380008,True,"[0.27763153989870348, 0.27750863926598712, 0.27705785465108534]",False,False,,False,,right,up,"(0, 1)","(0, 0)","(0, 0)","(1, 0)","(0, 1)","(0, 0)","(0, 0)","(1, 0)"
empty,30,10.0256145622,0.768279152291,0.08,none_d,False,,,4.54898010008,True,"[0.60792500698109064, 0.6077728527065247, 0.60721476928132545]",True,True,x,,,up,down,"(0, 0)","(0, 0)","(1, 1)","(0, 0)","(0, 0)","(0, 0)","(1, 1)","(0, 0)"
interactor,31,9.61098769949,0.757386288695,0.08,45_top_u,False,,,4.55140370037,True,"[0.58039428708500251, 0.58024457116874606, 0.5796954313460867]",True,False,,False,,down,up,"(1, 1)","(0, 0)","(0, 0)","(0, 0)","(0, 1)","(0, 0)","(0, 0)","(1, 0)"
empty,32,9.28481679961,0.813530329146,0.0,none_l,True,4.12298810016,right,4.52439589985,True,"[0.52041399670377997, 0.52026959316002763, 0.51973993847540667]",False,False,m,,,right,up,"(0, 1)","(0, 0)","(0, 0)","(1, 0)","(0, 1)","(0, 0)","(0, 0)","(1, 0)"
interactor,33,9.63934107234,0.725414260652,-0.16,135_bottom_r,False,,,4.55076400004,True,"[-0.075360256796341507, -0.07545189342711589, -0.075788005474724751]",True,False,lighter,False,0.675496099982,left,right,"(0, 0)","(1, 1)","(0, 0)","(0, 0)","(1, 0)","(0, 1)","(0, 0)","(0, 0)"
interactor,34,9.47875620979,0.626681018265,0.08,135_top_l,False,,,4.54950150009,True,"[0.25728796807977217, 0.25716686924946286, 0.25672269342725906]",True,False,,False,,right,left,"(0, 0)","(0, 0)","(0, 0)","(1, 1)","(0, 0)","(0, 0)","(1, 0)","(0, 1)"
interactor,35,9.60602466873,0.64289229343,-0.16,45_top_u,True,4.12429040018,,4.52396610007,True,"[-0.26053878890113913, -0.26061402452191551, -0.26088997965402971]",False,True,m,,,down,left,"(1, 0)","(0, 0)","(0, 0)","(0, 1)","(0, 0)","(0, 0)","(0, 0)","(1, 1)"
interactor,36,9.88418076458,0.647573816867,-0.16,45_top_u,False,,,4.54939559987,True,"[-0.25023219408050545, -0.25030834254232648, -0.25058764586467985]",True,False,lighter,False,0.650808000006,down,up,"(1, 1)","(0, 0)","(0, 0)","(0, 0)","(0, 1)","(0, 0)","(0, 0)","(1, 0)"
empty,37,9.38178288493,0.720647314941,-0.08,none_u,False,,,4.55021880008,True,"[0.099496099835416185, 0.099388976415642594, 0.098996060704294564]",True,True,lighter,False,0.524969200138,down,up,"(1, 1)","(0, 0)","(0, 0)","(0, 0)","(1, 1)","(0, 0)","(0, 0)","(0, 0)"
empty,38,9.18302841706,0.633203927253,0.0,none_r,True,4.12563879974,right,4.52449439978,True,"[0.081955958900721049, 0.081850388987306566, 0.081463171348860497]",False,False,darker,,0.975437100045,left,down,"(0, 0)","(1, 0)","(0, 1)","(0, 0)","(0, 0)","(1, 0)","(0, 1)","(0, 0)"
interactor,39,9.71228034348,0.885913736518,0.08,45_bottom_d,True,4.12360840011,,4.52361609973,True,"[0.91070835583694154, 0.91052938445417353, 0.90987293912857914]",False,True,darker,False,0.675291500054,up,right,"(0, 0)","(0, 1)","(1, 0)","(0, 0)","(0, 0)","(1, 1)","(0, 0)","(0, 0)"
empty,40,10.2373282685,0.748830358779,0.16,none_d,True,4.12535180012,left,4.55088340025,True,"[0.76255353084184097, 0.76238768132983603, 0.76177936543472113]",False,False,darker,False,0.500524399802,up,right,"(0, 0)","(0, 1)","(1, 0)","(0, 0)","(0, 0)","(0, 1)","(1, 0)","(0, 0)"
interactor,41,9.53515452044,0.830606454053,-0.16,45_top_u,False,,,4.55212129978,True,"[0.17060552286291619, 0.17049210137854143, 0.17007608513008776]",True,False,darker,True,0.775123400148,down,up,"(1, 1)","(0, 0)","(0, 0)","(0, 0)","(0, 1)","(0, 0)","(0, 0)","(1, 0)"
interactor,42,9.40474671561,0.79234773664,-0.16,45_bottom_l,False,,,4.54962350009,True,"[0.079941661237386663, 0.079836269727568077, 0.079449706451876434]",True,False,,False,,right,left,"(0, 0)","(0, 0)","(0, 0)","(1, 1)","(1, 0)","(0, 0)","(0, 0)","(0, 1)"
empty,43,9.28317582191,0.885319257573,0.16,none_u,False,,,4.54962870013,True,"[1.0, 1.0, 1.0]",True,True,x,,,down,up,"(1, 1)","(0, 0)","(0, 0)","(0, 0)","(1, 1)","(0, 0)","(0, 0)","(0, 0)"
empty,44,9.63709314441,0.84091030788,-0.16,none_d,True,4.12500339979,left,4.52475269977,True,"[0.19524817706173514, 0.19513257301109155, 0.19470855137427368]",False,False,darker,True,0.851426099893,up,right,"(0, 0)","(0, 1)","(1, 0)","(0, 0)","(0, 0)","(0, 1)","(1, 0)","(0, 0)"
interactor,45,9.79481311988,0.714666447819,-0.16,45_top_r,True,4.12416450027,,4.52391520003,True,"[-0.099885560722013378, -0.099975025180073174, -0.10030316996161204]",False,True,,False,,left,down,"(0, 0)","(1, 0)","(0, 1)","(0, 0)","(0, 0)","(0, 0)","(1, 1)","(0, 0)"
interactor,46,9.2237481985,0.820560149499,0.08,45_bottom_d,False,,,4.55020629987,True,"[0.74127789655364107, 0.74111393139554393, 0.74051252708202253]",True,False,x,,,up,down,"(0, 0)","(0, 0)","(1, 1)","(0, 0)","(0, 0)","(1, 0)","(0, 1)","(0, 0)"
empty,47,9.7550969506,0.695288593966,0.08,none_u,False,,,4.55022890028,True,"[0.42518229376518413, 0.42504632476346083, 0.42454760695603144]",True,True,darker,False,0.725133699831,down,up,"(1, 1)","(0, 0)","(0, 0)","(0, 0)","(1, 1)","(0, 0)","(0, 0)","(0, 0)"
empty,48,9.56447256364,0.624449829294,0.0,none_l,False,,,4.5509548001,True,"[0.061393064694142963, 0.061289316008218853, 0.060908778411325359]",True,True,darker,,0.47474219976,right,left,"(0, 0)","(0, 0)","(0, 0)","(1, 1)","(0, 0)","(0, 0)","(0, 0)","(1, 1)"
empty,49,9.24864599042,0.858363334009,0.0,none_l,False,,,4.55022440013,True,"[0.63349078719774798, 0.63333636859690068, 0.63276997989752837]",True,True,,False,,right,left,"(0, 0)","(0, 0)","(0, 0)","(1, 1)","(0, 0)","(0, 0)","(0, 0)","(1, 1)"
interactor,50,9.27249026735,0.846424797945,0.16,135_bottom_d,True,4.12498519989,,4.52382199978,True,"[1.0, 1.0, 1.0]",False,True,m,,,up,left,"(0, 0)","(0, 0)","(1, 0)","(0, 1)","(0, 0)","(0, 0)","(0, 0)","(1, 1)"
interactor,51,9.69216135506,0.760872556982,-0.08,45_top_r,True,4.12587429956,,4.52694619959,True,"[0.19515772104025308, 0.19504212500117601, 0.19461813274981243]",False,True,darker,True,0.700462600216,left,down,"(0, 0)","(1, 0)","(0, 1)","(0, 0)","(0, 0)","(0, 0)","(1, 1)","(0, 0)"
interactor,52,9.06661185624,0.648516374289,0.16,135_bottom_r,True,4.12492089998,,4.5247566998,True,"[0.5078629671585142, 0.50771967524232853, 0.50719409787280023]",False,True,,False,,left,up,"(0, 1)","(1, 0)","(0, 0)","(0, 0)","(1, 1)","(0, 0)","(0, 0)","(0, 0)"
empty,53,9.71863875107,0.78631391958,-0.08,none_u,False,,,4.54899250017,True,"[0.25640019657041213, 0.25627917636881392, 0.25583528894718821]",True,True,m,,,down,up,"(1, 1)","(0, 0)","(0, 0)","(0, 0)","(1, 1)","(0, 0)","(0, 0)","(0, 0)"
interactor,54,9.41758738002,0.647341906539,0.08,135_bottom_d,False,,,4.55159989977,True,"[0.30743767726167093, 0.30731213674002333, 0.30685166933270502]",True,False,lighter,True,0.725328500383,up,down,"(0, 0)","(0, 0)","(1, 1)","(0, 0)","(0, 0)","(0, 0)","(0, 1)","(1, 0)"
interactor,55,9.67704635764,0.658629659581,0.0,45_bottom_d,False,,,4.54890499962,True,"[0.14208068059879486, 0.14196978552079065, 0.14156303582449126]",True,False,,False,,up,down,"(0, 0)","(0, 0)","(1, 1)","(0, 0)","(0, 0)","(1, 0)","(0, 1)","(0, 0)"
interactor,56,9.6109925364,0.608844256506,-0.16,135_bottom_d,True,4.12363939965,,4.52357829968,True,"[-0.33473478240357801, -0.33480344658641448, -0.33505529848118076]",False,True,m,,,up,left,"(0, 0)","(0, 0)","(1, 0)","(0, 1)","(0, 0)","(0, 0)","(0, 0)","(1, 1)"
interactor,57,9.56378814651,0.730447405785,-0.16,135_bottom_r,True,4.1253056,,4.5256020003,True,"[-0.06383491612163017, -0.063927573536106341, -0.064267429694531919]",False,True,darker,True,0.60198259959,left,up,"(0, 1)","(1, 0)","(0, 0)","(0, 0)","(1, 1)","(0, 0)","(0, 0)","(0, 0)"
interactor,58,9.40444046601,0.662081435215,0.0,135_bottom_r,False,,,4.55086420011,True,"[0.15028849724150195, 0.15017687520837253, 0.14976745912884604]",True,False,lighter,,0.949007399846,left,right,"(0, 0)","(1, 1)","(0, 0)","(0, 0)","(1, 0)","(0, 1)","(0, 0)","(0, 0)"
empty,59,9.34914299134,0.811740526575,0.08,none_l,True,4.12539529987,right,4.52502610022,True,"[0.71864262913912125, 0.71848066875578298, 0.71788661771293283]",False,False,,False,,right,up,"(0, 1)","(0, 0)","(0, 0)","(1, 0)","(0, 1)","(0, 0)","(0, 0)","(1, 0)"
empty,60,9.05136509487,0.787894817218,0.08,none_u,True,4.1241878001,left,4.52487749979,True,"[0.65772448748724344, 0.65756792254061702, 0.65699366130524517]",False,False,m,,,down,left,"(1, 0)","(0, 0)","(0, 0)","(0, 1)","(1, 0)","(0, 0)","(0, 0)","(0, 1)"
interactor,61,9.39419770315,0.71918823026,0.16,45_bottom_d,True,4.12661320018,,4.52531709988,True,"[0.68652407423455619, 0.68636495854781621, 0.68578134150706682]",False,True,lighter,True,0.701665000059,up,right,"(0, 0)","(0, 1)","(1, 0)","(0, 0)","(0, 0)","(1, 1)","(0, 0)","(0, 0)"
empty,62,9.02175276123,0.74974690865,-0.08,none_r,True,4.12552620005,left,4.52505559986,True,"[0.16855409208522532, 0.16844085229327721, 0.16802550247060433]",False,False,darker,True,0.625172200147,left,up,"(0, 1)","(1, 0)","(0, 0)","(0, 0)","(0, 1)","(1, 0)","(0, 0)","(0, 0)"
empty,63,10.1894995599,0.76839298784,0.0,none_r,False,,,4.55060189962,True,"[0.4081334539578656, 0.40799899494862935, 0.40750581561050248]",True,True,darker,,0.825109099969,left,right,"(0, 0)","(1, 1)","(0, 0)","(0, 0)","(0, 0)","(1, 1)","(0, 0)","(0, 0)"
empty,64,9.18741532747,0.78655314595,-0.16,none_u,True,4.12429040018,right,4.52578950021,True,"[0.066327102033514995, 0.066222916346633909, 0.065840775883231784]",False,False,,False,,down,right,"(1, 0)","(0, 1)","(0, 0)","(0, 0)","(1, 0)","(0, 1)","(0, 0)","(0, 0)"
interactor,65,9.50191482873,0.670435921434,-0.16,45_bottom_d,True,4.12402149988,,4.52391989995,True,"[-0.19954759655929155, -0.19962823408677832, -0.19992400275754663]",False,True,x,,,up,right,"(0, 0)","(0, 1)","(1, 0)","(0, 0)","(0, 0)","(1, 1)","(0, 0)","(0, 0)"
interactor,66,9.23912800073,0.704735491348,0.0,135_bottom_r,False,,,4.54990100022,True,"[0.25258432629495986, 0.25246364405978672, 0.2520209962580191]",True,False,lighter,,0.825068499893,left,right,"(0, 0)","(1, 1)","(0, 0)","(0, 0)","(1, 0)","(0, 1)","(0, 0)","(0, 0)"
empty,67,9.92507886555,0.701282305046,-0.16,none_r,True,4.12537330016,right,4.54968739999,True,"[-0.13026077300372796, -0.1303475471706671, -0.13066582429067142]",False,False,darker,True,0.800902900286,left,down,"(0, 0)","(1, 0)","(0, 1)","(0, 0)","(0, 0)","(1, 0)","(0, 1)","(0, 0)"
empty,68,9.15340426459,0.677043906765,0.08,none_l,False,,,4.54980019992,True,"[0.38015706017253215, 0.3800250789943338, 0.37954098803992764]",True,True,darker,False,0.675305299927,right,left,"(0, 0)","(0, 0)","(0, 0)","(1, 1)","(0, 0)","(0, 0)","(0, 0)","(1, 1)"
empty,69,9.12679324935,0.57965943402,0.16,none_r,False,,,4.54966900032,True,"[0.33750629294453294, 0.33737808928661095, 0.33690785381842536]",True,True,lighter,True,0.925549099687,left,right,"(0, 0)","(1, 1)","(0, 0)","(0, 0)","(0, 0)","(1, 1)","(0, 0)","(0, 0)"
empty,70,9.29477761513,0.780507090256,0.16,none_u,True,4.12483729981,right,4.52471789997,True,"[0.8444893208651596, 0.84431621441199489, 0.84368128093685923]",False,False,lighter,True,0.750251499936,down,right,"(1, 0)","(0, 1)","(0, 0)","(0, 0)","(1, 0)","(0, 1)","(0, 0)","(0, 0)"
interactor,71,9.55113617919,0.759271688282,-0.08,135_top_u,True,4.12622840004,,4.52608999982,True,"[0.19132298778153878, 0.19120773137955416, 0.19078498487585938]",False,True,,False,,down,right,"(1, 0)","(0, 1)","(0, 0)","(0, 0)","(0, 0)","(1, 1)","(0, 0)","(0, 0)"
empty,72,9.78090398709,0.78272720391,0.08,none_u,True,4.12565980013,right,4.52447309997,True,"[0.64457757818277073, 0.6444221776399679, 0.64385218729659965]",False,False,x,,,down,right,"(1, 0)","(0, 1)","(0, 0)","(0, 0)","(1, 0)","(0, 1)","(0, 0)","(0, 0)"
empty,73,9.48170809561,0.67806920283,-0.08,none_u,False,,,4.54957050039,True,"[-0.00013537683902542508, -0.00023367603480928256, -0.00059422556280586125]",True,True,darker,True,0.574510499835,down,up,"(1, 1)","(0, 0)","(0, 0)","(0, 0)","(1, 1)","(0, 0)","(0, 0)","(0, 0)"
empty,74,9.61119386997,0.726731774751,-0.16,none_d,True,4.12386579998,right,4.52442990011,True,"[-0.072345765118837169, -0.072437668739027017, -0.072774760071432465]",False,False,darker,True,0.675277999602,up,left,"(0, 0)","(0, 0)","(1, 0)","(0, 1)","(0, 0)","(0, 0)","(1, 0)","(0, 1)"
empty,75,9.51876233495,0.71791155668,0.0,none_u,True,4.12587969983,right,4.52522769989,True,"[0.28450279814609591, 0.28437928893540865, 0.28392627213032262]",False,False,darker,,0.726765799802,down,right,"(1, 0)","(0, 1)","(0, 0)","(0, 0)","(1, 0)","(0, 1)","(0, 0)","(0, 0)"
interactor,76,9.31551670741,0.772524282152,-0.08,135_bottom_r,False,,,4.54993660003,True,"[0.22313603181446884, 0.22301795777457056, 0.22258487651673353]",True,False,darker,True,0.6268740003,left,right,"(0, 0)","(1, 1)","(0, 0)","(0, 0)","(1, 0)","(0, 1)","(0, 0)","(0, 0)"
empty,77,9.21346937384,0.761559109447,0.0,none_d,False,,,4.55104150018,True,"[0.39127492572967193, 0.39114195985728473, 0.3906542571640288]",True,True,lighter,,0.64990040008,up,down,"(0, 0)","(0, 0)","(1, 1)","(0, 0)","(0, 0)","(0, 0)","(1, 1)","(0, 0)"
empty,78,9.75538126384,0.848468222332,0.0,none_d,False,,,4.55065210024,True,"[0.6084036483593056, 0.60825145169212558, 0.60769321277595978]",True,True,lighter,,0.67536989972,up,down,"(0, 0)","(0, 0)","(1, 1)","(0, 0)","(0, 0)","(0, 0)","(1, 1)","(0, 0)"
empty,79,9.47350822123,0.679254853259,0.0,none_d,False,,,4.54923140025,True,"[0.19128267303166147, 0.19116742020029953, 0.19074468679321477]",True,True,,False,,up,down,"(0, 0)","(0, 0)","(1, 1)","(0, 0)","(0, 0)","(0, 0)","(1, 1)","(0, 0)"
empty,80,9.43001951157,0.653302441808,-0.16,none_l,True,4.12448140001,right,4.52452750038,True,"[-0.23758667370299424, -0.23766394216130582, -0.23794735349495011]",False,False,m,,,right,up,"(0, 1)","(0, 0)","(0, 0)","(1, 0)","(0, 1)","(0, 0)","(0, 0)","(1, 0)"
interactor,81,9.05037942569,0.661402084782,0.0,45_bottom_l,True,4.12585389987,,4.52559109963,True,"[0.14867225404211304, 0.14856077515744137, 0.14815188412908697]",False,True,darker,,0.975279700011,right,up,"(0, 1)","(0, 0)","(0, 0)","(1, 0)","(1, 1)","(0, 0)","(0, 0)","(0, 0)"
empty,82,9.56067965235,0.676572251732,0.16,none_r,True,4.12532139989,left,4.52578199981,True,"[0.57834046168865116, 0.57819092767690772, 0.57764245505794398]",False,False,lighter,True,0.600104500074,left,up,"(0, 1)","(1, 0)","(0, 0)","(0, 0)","(0, 1)","(1, 0)","(0, 0)","(0, 0)"
empty,83,9.96940004424,0.934609541727,0.16,none_l,False,,,4.55015650019,True,"[1.0, 1.0, 1.0]",True,True,lighter,True,0.525857899804,right,left,"(0, 0)","(0, 0)","(0, 0)","(1, 1)","(0, 0)","(0, 0)","(0, 0)","(1, 1)"
interactor,84,9.19694431797,0.762173685111,0.08,135_bottom_r,False,,,4.55012889998,True,"[0.59248303670496072, 0.59233225010463952, 0.59177918314268974]",True,False,lighter,True,0.72487949999,left,right,"(0, 0)","(1, 1)","(0, 0)","(0, 0)","(1, 0)","(0, 1)","(0, 0)","(0, 0)"
interactor,85,9.12071388766,0.943026520253,0.08,45_top_r,False,,,4.54957660008,True,"[1.0, 1.0, 1.0]",True,False,lighter,True,0.501582399942,left,right,"(0, 0)","(1, 1)","(0, 0)","(0, 0)","(0, 0)","(0, 1)","(1, 0)","(0, 0)"
empty,86,9.4422130278,0.828017851819,-0.08,none_d,False,,,4.55075759999,True,"[0.35798177116484475, 0.35785175402174652, 0.35737486690987952]",True,True,darker,True,0.725328800268,up,down,"(0, 0)","(0, 0)","(1, 1)","(0, 0)","(0, 0)","(0, 0)","(1, 1)","(0, 0)"
interactor,87,9.49185466185,0.719340529221,-0.08,45_top_r,False,,,4.54986970033,True,"[0.096412989616613487, 0.096306139263708346, 0.095914225128507224]",True,False,darker,True,0.651178099681,left,right,"(0, 0)","(1, 1)","(0, 0)","(0, 0)","(0, 0)","(0, 1)","(1, 0)","(0, 0)"
interactor,88,9.82998951443,0.781537404933,0.16,45_top_u,False,,,4.55172730004,True,"[0.84716608791492143, 0.84699274438414962, 0.8463569413371077]",True,False,lighter,True,0.549587200396,down,up,"(1, 1)","(0, 0)","(0, 0)","(0, 0)","(0, 1)","(0, 0)","(0, 0)","(1, 0)"
interactor,89,9.13246383147,0.793036122267,0.16,135_bottom_d,False,,,4.54920780007,True,"[0.87708942244683885, 0.87691342864714494, 0.87626790473512828]",True,False,lighter,True,0.575715299696,up,down,"(0, 0)","(0, 0)","(1, 1)","(0, 0)","(0, 0)","(0, 0)","(0, 1)","(1, 0)"
interactor,90,9.6109414969,0.710851091985,0.0,45_top_r,False,,,4.54894839972,True,"[0.26738073084224623, 0.26725873810970602, 0.26681128356253492]",True,False,darker,,0.600188000128,left,right,"(0, 0)","(1, 1)","(0, 0)","(0, 0)","(0, 0)","(0, 1)","(1, 0)","(0, 0)"
interactor,91,9.46843927699,0.792770495844,0.0,45_bottom_l,False,,,4.55077899992,True,"[0.46857440897643432, 0.46843459679425625, 0.46792178266703011]",True,False,,False,,right,left,"(0, 0)","(0, 0)","(0, 0)","(1, 1)","(1, 0)","(0, 0)","(0, 0)","(0, 1)"
empty,92,9.23278457808,0.69883855744,-0.08,none_d,True,4.12559030019,left,4.52413849998,True,"[0.048250285059793896, 0.048147700411935057, 0.047771432365485422]",False,False,darker,True,0.577058400027,up,right,"(0, 0)","(0, 1)","(1, 0)","(0, 0)","(0, 0)","(0, 1)","(1, 0)","(0, 0)"
empty,93,9.74541083033,0.835682206572,0.08,none_l,True,4.12571639987,right,4.52498809993,True,"[0.78021705894830751, 0.78004964500171092, 0.77943559095025838]",False,False,lighter,True,0.526069799904,right,up,"(0, 1)","(0, 0)","(0, 0)","(1, 0)","(0, 1)","(0, 0)","(0, 0)","(1, 0)"
empty,94,9.63972632005,0.8562813102,0.08,none_l,False,,,4.55069899978,True,"[0.83351838006953605, 0.83334624529763257, 0.83271487583151549]",True,True,lighter,True,0.601099499967,right,left,"(0, 0)","(0, 0)","(0, 0)","(1, 1)","(0, 0)","(0, 0)","(0, 0)","(1, 1)"
empty,95,9.48010192214,0.637772762876,0.0,none_l,False,,,4.55089809978,True,"[0.092716224168392758, 0.092609701232960973, 0.092218988025341009]",True,True,darker,,0.601183800027,right,left,"(0, 0)","(0, 0)","(0, 0)","(1, 1)","(0, 0)","(0, 0)","(0, 0)","(1, 1)"
empty,96,9.12658318935,0.74268197169,0.08,none_r,False,,,4.55126259988,True,"[0.54337240424286959, 0.5432259673042763, 0.54268885437400272]",True,True,lighter,True,0.54979160009,left,right,"(0, 0)","(1, 1)","(0, 0)","(0, 0)","(0, 0)","(1, 1)","(0, 0)","(0, 0)"
empty,97,9.15613303339,0.794607739,-0.08,none_u,True,4.12503409991,right,4.5247351001,True,"[0.27648556812033043, 0.27636276898477141, 0.27591235664913238]",False,False,darker,True,0.575855899602,down,right,"(1, 0)","(0, 1)","(0, 0)","(0, 0)","(1, 0)","(0, 1)","(0, 0)","(0, 0)"
interactor,98,9.51933918763,0.805413818795,-0.16,135_top_l,True,4.12631170033,,4.52720700018,True,"[0.11075506275966385, 0.11064694214890358, 0.11025036886195161]",False,True,darker,True,0.599475999828,right,down,"(0, 0)","(0, 0)","(0, 1)","(1, 0)","(0, 0)","(0, 0)","(1, 1)","(0, 0)"
interactor,99,8.92256479016,0.756894493797,0.16,45_bottom_d,False,,,4.55142919999,True,"[0.78334568953288475, 0.78317799848774516, 0.7825629280724431]",True,False,lighter,True,0.525549400132,up,down,"(0, 0)","(0, 0)","(1, 1)","(0, 0)","(0, 0)","(1, 0)","(0, 1)","(0, 0)"
interactor,100,9.82341225333,0.783720979659,0.16,135_top_u,False,,,4.55070499983,True,"[0.85284145535837386, 0.85266760916804807, 0.85202996242673068]",True,False,lighter,True,0.550852500368,down,up,"(1, 1)","(0, 0)","(0, 0)","(0, 0)","(0, 1)","(1, 0)","(0, 0)","(0, 0)"
interactor,101,9.18790186494,0.831955963458,-0.16,135_top_u,True,4.12625619955,,4.52618209971,True,"[0.17382765054955374, 0.17371394368572624, 0.17329688070004678]",False,True,darker,True,0.651260800194,down,right,"(1, 0)","(0, 1)","(0, 0)","(0, 0)","(0, 0)","(1, 1)","(0, 0)","(0, 0)"
empty,102,9.54019584659,0.708174891054,0.0,none_l,True,4.12713379972,right,4.52536940016,True,"[0.26090185765479945, 0.26078043874721879, 0.26033508892040835]",False,False,darker,,0.576012399979,right,up,"(0, 1)","(0, 0)","(0, 0)","(1, 0)","(0, 1)","(0, 0)","(0, 0)","(1, 0)"
empty,103,9.33205298202,0.685521454965,0.16,none_d,False,,,4.55151289981,True,"[0.60094677574351785, 0.60079523952137426, 0.60023942303749966]",True,True,lighter,True,0.649981600232,up,down,"(0, 0)","(0, 0)","(1, 1)","(0, 0)","(0, 0)","(0, 0)","(1, 1)","(0, 0)"
empty,104,9.30243206045,0.749190867813,0.16,none_r,False,,,4.54903149977,True,"[0.76348206762623594, 0.76331613587499358, 0.7627075183363341]",True,True,lighter,True,0.626339700073,left,right,"(0, 0)","(1, 1)","(0, 0)","(0, 0)","(0, 0)","(1, 1)","(0, 0)","(0, 0)"
interactor,105,9.32017496535,0.805756288112,-0.08,135_top_l,False,,,4.55031499965,True,"[0.30357618087873828, 0.30345098236455925, 0.30299176939915107]",True,False,darker,True,0.549745900091,right,left,"(0, 0)","(0, 0)","(0, 0)","(1, 1)","(0, 0)","(0, 0)","(1, 0)","(0, 1)"
interactor,106,9.93100980157,0.768212249509,-0.08,45_top_u,False,,,4.54945169995,True,"[0.21276808322858365, 0.21265092746374759, 0.21222121432747398]",True,False,darker,True,0.501973900013,down,up,"(1, 1)","(0, 0)","(0, 0)","(0, 0)","(0, 1)","(0, 0)","(0, 0)","(1, 0)"
interactor,107,9.4105686071,0.6659466731,0.16,135_bottom_r,False,,,4.54932110012,True,"[0.55157794765347057, 0.55143078396109124, 0.55089100538606961]",True,False,lighter,True,0.52673889976,left,right,"(0, 0)","(1, 1)","(0, 0)","(0, 0)","(1, 0)","(0, 1)","(0, 0)","(0, 0)"
interactor,108,9.62472851178,0.75005234229,0.0,135_bottom_d,False,,,4.54986510007,True,"[0.36297431514666489, 0.36284385582075429, 0.3623653468359691]",True,False,lighter,,0.800958899781,up,down,"(0, 0)","(0, 0)","(1, 1)","(0, 0)","(0, 0)","(0, 0)","(0, 1)","(1, 0)"
empty,109,9.38578807381,0.843517460385,-0.16,none_l,False,,,4.54943230003,True,"[0.20149828110705736, 0.20138212349322293, 0.20095607145376282]",True,True,darker,True,0.475396799855,right,left,"(0, 0)","(0, 0)","(0, 0)","(1, 1)","(0, 0)","(0, 0)","(0, 0)","(1, 1)"
interactor,110,9.59312855498,0.763064200282,0.08,45_top_u,False,,,4.54991040006,True,"[0.59473359281874782, 0.59458260688974107, 0.59402880881434905]",True,False,darker,False,0.702286299784,down,up,"(1, 1)","(0, 0)","(0, 0)","(0, 0)","(0, 1)","(0, 0)","(0, 0)","(1, 0)"
interactor,111,9.23766236312,0.799041881796,-0.16,45_top_r,False,,,4.55214860011,True,"[0.0957086093292292, 0.095601821362324202, 0.095210136051409933]",True,False,darker,True,0.625466299709,left,right,"(0, 0)","(1, 1)","(0, 0)","(0, 0)","(0, 0)","(0, 1)","(1, 0)","(0, 0)"
interactor,112,9.44846605434,0.844229083354,0.0,135_bottom_d,True,4.12658270029,,4.525349,True,"[0.59767844293650185, 0.59752719618613792, 0.5969724414496389]",False,True,lighter,,0.676680600271,up,left,"(0, 0)","(0, 0)","(1, 0)","(0, 1)","(0, 0)","(0, 0)","(0, 0)","(1, 1)"
empty,113,9.95339568047,0.868676169478,-0.16,none_u,False,,,4.55129139964,True,"[0.26211494838465277, 0.2619934220352802, 0.26154767812501079]",True,True,darker,True,0.425546300132,down,up,"(1, 1)","(0, 0)","(0, 0)","(0, 0)","(1, 1)","(0, 0)","(0, 0)","(0, 0)"
interactor,114,9.21645404163,0.780491864245,0.16,45_bottom_l,False,,,4.54934770009,True,"[0.84444976904320912, 0.84427666609309582, 0.84364174546672555]",True,False,lighter,True,0.500085500069,right,left,"(0, 0)","(0, 0)","(0, 0)","(1, 1)","(1, 0)","(0, 0)","(0, 0)","(0, 1)"
empty,115,9.02749552041,0.788168923692,0.0,none_u,False,,,4.55042830016,True,"[0.45712934692238316, 0.45699054841373843, 0.456481452318096]",True,True,darker,,0.52529489994,down,up,"(1, 1)","(0, 0)","(0, 0)","(0, 0)","(1, 1)","(0, 0)","(0, 0)","(0, 0)"
empty,116,9.27946046242,0.747832414442,-0.08,none_u,True,4.12456770008,left,4.52541820006,True,"[0.16398723796459991, 0.16387440265269126, 0.16346053641374891]",False,False,darker,True,0.574818499852,down,left,"(1, 0)","(0, 0)","(0, 0)","(0, 1)","(1, 0)","(0, 0)","(0, 0)","(0, 1)"
interactor,117,9.98308287869,0.93329229181,0.16,135_bottom_d,False,,,4.55174060026,True,"[1.0, 1.0, 1.0]",True,False,lighter,True,0.47421539994,up,down,"(0, 0)","(0, 0)","(1, 1)","(0, 0)","(0, 0)","(0, 0)","(0, 1)","(1, 0)"
empty,118,9.46040507092,0.820407004465,0.08,none_u,False,,,4.55065830005,True,"[0.74088438037746829, 0.74072045007256127, 0.74011917359631774]",True,True,darker,False,0.700200799853,down,up,"(1, 1)","(0, 0)","(0, 0)","(0, 0)","(1, 1)","(0, 0)","(0, 0)","(0, 0)"
interactor,119,9.36487838109,0.676573083555,0.0,135_top_u,True,4.12445580028,,4.52625290025,True,"[0.18486384419287383, 0.18474915986842722, 0.18432851167575448]",False,True,darker,,0.649294599891,down,right,"(1, 0)","(0, 1)","(0, 0)","(0, 0)","(0, 0)","(1, 1)","(0, 0)","(0, 0)"
interactor,120,9.40193461167,0.679557021044,-0.08,45_bottom_d,True,4.12487469986,,4.52473829966,True,"[0.0033169618711073046, 0.0032183569063932715, 0.002856685855043839]",False,True,darker,True,0.525032200385,up,right,"(0, 0)","(0, 1)","(1, 0)","(0, 0)","(0, 0)","(1, 1)","(0, 0)","(0, 0)"
empty,121,9.1543258716,0.803361526579,0.0,none_d,True,4.12643999979,left,4.52514539985,True,"[0.49497952359444342, 0.49483737274727946, 0.49431598068053439]",False,False,lighter,,0.651190700009,up,right,"(0, 0)","(0, 1)","(1, 0)","(0, 0)","(0, 0)","(0, 1)","(1, 0)","(0, 0)"
empty,122,9.43670510652,0.826601643126,-0.16,none_u,True,4.12451050011,left,4.52440530015,True,"[0.16105307076735786, 0.16094049533063504, 0.16052758228235797]",False,False,darker,True,0.526840499602,down,left,"(1, 0)","(0, 0)","(0, 0)","(0, 1)","(1, 0)","(0, 0)","(0, 0)","(0, 1)"
interactor,123,9.59924498079,0.806499031801,-0.08,135_bottom_r,False,,,4.5505948998,True,"[0.3053847409322219, 0.30525938223634719, 0.30479958174390087]",True,False,darker,True,0.62410539994,left,right,"(0, 0)","(1, 1)","(0, 0)","(0, 0)","(1, 0)","(0, 1)","(0, 0)","(0, 0)"
interactor,124,9.37542845864,0.729219768818,0.08,135_top_l,True,4.12435980001,,4.52403770015,True,"[0.50962254761300341, 0.50947909985317663, 0.50895295086807568]",False,True,lighter,True,0.576477900147,right,down,"(0, 0)","(0, 0)","(0, 1)","(1, 0)","(0, 0)","(0, 0)","(1, 1)","(0, 0)"
empty,125,9.49747027698,0.720778243288,0.16,none_d,True,4.12450059969,left,4.52437809994,True,"[0.69058626199942186, 0.69042678653025202, 0.68984184985118802]",False,False,darker,False,0.550160599872,up,right,"(0, 0)","(0, 1)","(1, 0)","(0, 0)","(0, 0)","(0, 1)","(1, 0)","(0, 0)"
interactor,126,9.83213907392,0.663501219688,-0.16,135_top_u,False,,,4.54877950018,True,"[-0.21498282757516518, -0.21506209802529497, -0.21535285242212265]",True,False,darker,True,0.526386499871,down,up,"(1, 1)","(0, 0)","(0, 0)","(0, 0)","(0, 1)","(1, 0)","(0, 0)","(0, 0)"
empty,127,9.85281256772,0.866570793615,-0.16,none_r,False,,,4.55069410009,True,"[0.25702139466236451, 0.25690031944209935, 0.25645623021867325]",True,True,darker,True,0.575975100044,left,right,"(0, 0)","(1, 1)","(0, 0)","(0, 0)","(0, 0)","(1, 1)","(0, 0)","(0, 0)"
empty,128,9.47352234646,0.650104843198,-0.08,none_d,False,,,4.54936880013,True,"[-0.064620155277363867, -0.064712743144279661, -0.065052344210686619]",True,True,darker,True,0.700715899933,up,down,"(0, 0)","(0, 0)","(1, 1)","(0, 0)","(0, 0)","(0, 0)","(1, 1)","(0, 0)"
empty,129,9.36655299875,0.629596132301,-0.08,none_r,True,4.12376299966,right,4.52450859966,True,"[-0.11141441133917196, -0.11150285470265864, -0.11182725423314444]",False,False,darker,True,0.575248700101,left,down,"(0, 0)","(1, 0)","(0, 1)","(0, 0)","(0, 0)","(1, 0)","(0, 1)","(0, 0)"
empty,130,9.39399695683,0.815984159266,0.16,none_l,False,,,4.5500074001,True,"[0.93707696107823701, 0.93689565426406962, 0.93623064285935542]",True,True,lighter,True,0.350832900032,right,left,"(0, 0)","(0, 0)","(0, 0)","(1, 1)","(0, 0)","(0, 0)","(0, 0)","(1, 1)"
empty,131,9.66467538129,0.761035768325,-0.08,none_u,True,4.12715800013,right,4.52781670028,True,"[0.19554880547535647, 0.19543317479846478, 0.19500905549979675]",False,False,darker,True,0.549631199799,down,right,"(1, 0)","(0, 1)","(0, 0)","(0, 0)","(1, 0)","(0, 1)","(0, 0)","(0, 0)"
empty,132,9.5406202708,0.719460610932,0.16,none_l,True,4.12619919982,right,4.52686819993,True,"[0.68721982596007436, 0.68706064865155203, 0.68647680558958402]",False,False,lighter,True,0.975374499802,right,up,"(0, 1)","(0, 0)","(0, 0)","(1, 0)","(0, 1)","(0, 0)","(0, 0)","(1, 0)"
empty,133,9.71120885667,0.751060178907,0.08,none_l,True,4.12373870006,right,4.52455029963,True,"[0.564446595716533, 0.5642982922655464, 0.56375433319419366]",False,False,darker,False,0.626188400201,right,up,"(0, 1)","(0, 0)","(0, 0)","(1, 0)","(0, 1)","(0, 0)","(0, 0)","(1, 0)"
interactor,134,9.598998735,0.950380051996,-0.08,45_bottom_l,True,4.12587059988,,4.52570080012,True,"[0.66405414528110462, 0.66389701972532156, 0.66332070224355411]",False,True,darker,True,0.526617999654,right,up,"(0, 1)","(0, 0)","(0, 0)","(1, 0)","(1, 1)","(0, 0)","(0, 0)","(0, 0)"
interactor,135,9.31196367871,0.853220194022,0.08,45_top_u,True,4.12553980015,,4.52409700025,True,"[0.82557885627780903, 0.82540742469869777, 0.82477863445845712]",False,True,lighter,True,0.651595400181,down,left,"(1, 0)","(0, 0)","(0, 0)","(0, 1)","(0, 0)","(0, 0)","(0, 0)","(1, 1)"
interactor,136,9.40378719114,0.750479859712,-0.08,45_bottom_l,True,4.12448609993,,4.52435269998,True,"[0.17030334565936722, 0.17018995093841527, 0.16977403285495019]",False,True,darker,True,0.500173499808,right,up,"(0, 1)","(0, 0)","(0, 0)","(1, 0)","(1, 1)","(0, 0)","(0, 0)","(0, 0)"
interactor,137,9.97155109474,0.746382113282,0.16,135_top_l,False,,,4.55090169981,True,"[0.75625020105452823, 0.756084909819843, 0.75547864161823286]",True,False,darker,False,0.474724600092,right,left,"(0, 0)","(0, 0)","(0, 0)","(1, 1)","(0, 0)","(0, 0)","(1, 0)","(0, 1)"
interactor,138,9.67440093865,0.656761734457,0.16,45_top_r,True,4.1250438001,,4.52412529988,True,"[0.52851317497256645, 0.52836805409564191, 0.52783576831994883]",False,True,lighter,True,0.600781300105,left,down,"(0, 0)","(1, 0)","(0, 1)","(0, 0)","(0, 0)","(0, 0)","(1, 1)","(0, 0)"
empty,139,9.66591202376,0.744118611825,-0.16,none_l,True,4.12486460013,right,4.52497620042,True,"[-0.032401408800341591, -0.032496850237686004, -0.032846917854329916]",False,False,darker,True,0.525592299644,right,up,"(0, 1)","(0, 0)","(0, 0)","(1, 0)","(0, 1)","(0, 0)","(0, 0)","(1, 0)"
empty,140,9.47669209692,0.674406782832,0.08,none_d,False,,,4.55017159972,True,"[0.37367128009726436, 0.37353987335576044, 0.3730578893654799]",True,True,lighter,True,0.625933799893,up,down,"(0, 0)","(0, 0)","(1, 1)","(0, 0)","(0, 0)","(0, 0)","(1, 1)","(0, 0)"
empty,141,9.47862479083,0.759665801741,0.08,none_u,True,4.12681710022,left,4.52701409999,True,"[0.5861481819017671, 0.58599795637089414, 0.58544694734363434]",False,False,lighter,True,0.600333699957,down,left,"(1, 0)","(0, 0)","(0, 0)","(0, 1)","(1, 0)","(0, 0)","(0, 0)","(0, 1)"
empty,142,9.49958710829,0.716325662586,0.0,none_u,False,,,4.54980630009,True,"[0.28065322447310859, 0.28053005621391036, 0.28007828997753514]",True,True,darker,,0.500194199849,down,up,"(1, 1)","(0, 0)","(0, 0)","(0, 0)","(1, 1)","(0, 0)","(0, 0)","(0, 0)"
empty,143,10.0253231589,0.907211359597,0.0,none_u,True,4.12367610028,left,4.54948400008,True,"[0.75838472856591932, 0.75821924827904397, 0.75761228665692948]",False,False,lighter,,0.674377200194,down,left,"(1, 0)","(0, 0)","(0, 0)","(0, 1)","(1, 0)","(0, 0)","(0, 0)","(0, 1)"
interactor,144,9.71949225262,0.924440400699,-0.16,135_top_u,True,4.12409040006,,4.52488610009,True,"[0.39837820573281313, 0.39824461073260653, 0.39775460047480649]",False,True,darker,True,0.574367300142,down,right,"(1, 0)","(0, 1)","(0, 0)","(0, 0)","(0, 0)","(1, 1)","(0, 0)","(0, 0)"
interactor,145,9.15215836347,0.839639887471,-0.16,135_bottom_r,False,,,4.54975519981,True,"[0.19220477510148815, 0.19208944060080468, 0.19166640764054943]",True,False,darker,True,0.600209000055,left,right,"(0, 0)","(1, 1)","(0, 0)","(0, 0)","(1, 0)","(0, 1)","(0, 0)","(0, 0)"
interactor,146,9.65077957006,0.840537674407,-0.16,45_bottom_d,False,,,4.54958719993,True,"[0.19435535410086091, 0.19423982912632876, 0.19381609753109874]",True,False,darker,True,0.650172800291,up,down,"(0, 0)","(0, 0)","(1, 1)","(0, 0)","(0, 0)","(1, 0)","(0, 1)","(0, 0)"
empty,147,9.58102461478,0.625004999445,-0.16,none_d,True,4.12619240023,left,4.52599060023,True,"[-0.29968712929463226, -0.29975889760029861, -0.30002213504112341]",False,False,darker,True,0.551241599955,up,right,"(0, 0)","(0, 1)","(1, 0)","(0, 0)","(0, 0)","(0, 1)","(1, 0)","(0, 0)"
interactor,148,9.65027001407,0.662756276619,-0.08,135_top_l,True,4.12551409984,,4.52662879974,True,"[-0.035542085687981007, -0.035637248959857648, -0.035986296299302389]",False,True,darker,True,0.57492709998,right,down,"(0, 0)","(0, 0)","(0, 1)","(1, 0)","(0, 0)","(0, 0)","(1, 1)","(0, 0)"
empty,149,9.91420783416,0.869729723495,0.16,none_l,True,4.12591849966,right,4.54928529961,True,"[1.0, 1.0, 1.0]",False,False,lighter,True,0.550670000259,right,up,"(0, 1)","(0, 0)","(0, 0)","(1, 0)","(0, 1)","(0, 0)","(0, 0)","(1, 0)"
interactor,150,9.6524518393,0.810972618057,0.16,45_top_r,True,4.12415649975,,4.52393019991,True,"[0.92394609061715882, 0.92376594678627888, 0.92310520106320504]",False,True,lighter,True,0.501229399815,left,down,"(0, 0)","(1, 0)","(0, 1)","(0, 0)","(0, 0)","(0, 0)","(1, 1)","(0, 0)"
interactor,151,9.55267107843,0.801422811971,0.0,45_top_u,False,,,4.55277789989,True,"[0.49013945790706082, 0.48999773573791328, 0.48947791601013879]",True,False,darker,,0.550222699996,down,up,"(1, 1)","(0, 0)","(0, 0)","(0, 0)","(0, 1)","(0, 0)","(0, 0)","(1, 0)"
interactor,152,9.55149405159,0.762218516482,0.16,45_bottom_l,True,4.12597519998,,4.52501890017,True,"[0.79709798236011453, 0.79692907329315665, 0.79630953532155635]",False,True,lighter,True,0.501081599854,right,up,"(0, 1)","(0, 0)","(0, 0)","(1, 0)","(1, 1)","(0, 0)","(0, 0)","(0, 0)"
empty,153,9.71007365553,0.735177052747,-0.16,none_l,False,,,4.55041579995,True,"[-0.052981354256750657, -0.053074972956398514, -0.05341835499223746]",True,True,darker,True,0.499586500227,right,left,"(0, 0)","(0, 0)","(0, 0)","(1, 1)","(0, 0)","(0, 0)","(0, 0)","(1, 1)"
interactor,154,9.38256946166,0.554646070639,0.08,45_bottom_d,True,4.12401310029,,4.52594300034,True,"[0.085350324498470576, 0.085244453950723997, 0.084856133622014385]",False,True,darker,False,0.498753199819,up,right,"(0, 0)","(0, 1)","(1, 0)","(0, 0)","(0, 0)","(1, 1)","(0, 0)","(0, 0)"
interactor,155,9.72415444147,0.700806410101,-0.16,135_bottom_d,True,4.12538089976,,4.52528129984,True,"[-0.13133738701852493, -0.13142406583123101, -0.13174199320346636]",False,True,darker,True,0.599656200036,up,left,"(0, 0)","(0, 0)","(1, 0)","(0, 1)","(0, 0)","(0, 0)","(0, 0)","(1, 1)"
interactor,156,9.4986428839,0.860995897492,0.16,135_top_l,False,,,4.55012420006,True,"[1.0, 1.0, 1.0]",True,False,lighter,True,0.576908199582,right,left,"(0, 0)","(0, 0)","(0, 0)","(1, 1)","(0, 0)","(0, 0)","(1, 0)","(0, 1)"
interactor,157,9.51400044538,0.759220848841,0.08,135_top_u,True,4.12413290003,,4.52525519999,True,"[0.58502473485279416, 0.58487460882409348, 0.58432396475873571]",False,True,darker,False,0.749849199783,down,right,"(1, 0)","(0, 1)","(0, 0)","(0, 0)","(0, 0)","(1, 1)","(0, 0)","(0, 0)"
empty,158,9.18546082422,0.81816494014,-0.08,none_l,False,,,4.55183230015,True,"[0.33385132933845751, 0.33372344939567711, 0.33325440127536754]",True,True,darker,True,0.825054499786,right,left,"(0, 0)","(0, 0)","(0, 0)","(1, 1)","(0, 0)","(0, 0)","(0, 0)","(1, 1)"
interactor,159,9.29246778571,0.777445277777,0.0,45_top_u,True,4.12442469969,,4.52427739976,True,"[0.43052232666154677, 0.43038588470039385, 0.42988543213513886]",False,True,darker,,0.651997399982,down,left,"(1, 0)","(0, 0)","(0, 0)","(0, 1)","(0, 0)","(0, 0)","(0, 0)","(1, 1)"
interactor,160,9.45353029395,0.797466674538,0.16,135_top_l,True,4.12549069989,,4.52564470004,True,"[0.88864330462770447, 0.88846628751642487, 0.88781701022162696]",False,True,lighter,True,0.524480799679,right,down,"(0, 0)","(0, 0)","(0, 1)","(1, 0)","(0, 0)","(0, 0)","(1, 1)","(0, 0)"
interactor,161,9.88794117504,0.858102247058,0.08,45_bottom_d,True,4.12448349968,,4.55038819974,True,"[0.83824436914975986, 0.83807181580344903, 0.83743891105717538]",False,True,lighter,True,0.450871000066,up,right,"(0, 0)","(0, 1)","(1, 0)","(0, 0)","(0, 0)","(1, 1)","(0, 0)","(0, 0)"
empty,162,9.84572695782,0.636224206476,0.16,none_d,True,4.1257838998,left,4.55062109977,True,"[0.4771754242572428, 0.4770348502948738, 0.47651924205029839]",False,False,lighter,True,0.72509209998,up,right,"(0, 0)","(0, 1)","(1, 0)","(0, 0)","(0, 0)","(0, 1)","(1, 0)","(0, 0)"
interactor,163,9.01995952367,0.688956450258,-0.16,135_bottom_d,False,,,4.55026380019,True,"[-0.15806870153678476, -0.15815301279342608, -0.15846225625716404]",True,False,darker,True,0.550445899833,up,down,"(0, 0)","(0, 0)","(1, 1)","(0, 0)","(0, 0)","(0, 0)","(0, 1)","(1, 0)"
interactor,164,9.15847865873,0.80726292283,-0.16,45_top_u,True,4.12538019987,,4.52615329996,True,"[0.11512844085809726, 0.11501993290320423, 0.11462193888495187]",False,True,darker,True,0.549036600161,down,left,"(1, 0)","(0, 0)","(0, 0)","(0, 1)","(0, 0)","(0, 0)","(0, 0)","(1, 1)"
interactor,165,9.2521528267,0.723470200937,-0.16,135_bottom_d,True,4.12610609969,,4.52530089999,True,"[-0.079805086822080207, -0.079896329780322684, -0.080230997884828681]",False,True,darker,True,0.426415599883,up,left,"(0, 0)","(0, 0)","(1, 0)","(0, 1)","(0, 0)","(0, 0)","(0, 0)","(1, 1)"
interactor,166,9.52581250105,0.775423231721,0.16,135_top_l,True,4.12557659997,,4.52653629985,True,"[0.83129215251558808, 0.83112021491762134, 0.83048956866159385]",False,True,lighter,True,0.449472399894,right,down,"(0, 0)","(0, 0)","(0, 1)","(1, 0)","(0, 0)","(0, 0)","(1, 1)","(0, 0)"
empty,167,9.61224250976,0.782934434509,0.08,none_u,True,4.12413709983,right,4.52482299972,True,"[0.64510441487746628, 0.644948967673457, 0.64437880618243892]",False,False,lighter,True,0.625953100156,down,right,"(1, 0)","(0, 1)","(0, 0)","(0, 0)","(1, 0)","(0, 1)","(0, 0)","(0, 0)"
empty,168,9.6885787222,0.861265987443,0.08,none_d,False,,,4.5505812997,True,"[0.84646087168983852, 0.84628759061910475, 0.84565201666791201]",True,True,lighter,True,0.576339400373,up,down,"(0, 0)","(0, 0)","(1, 1)","(0, 0)","(0, 0)","(0, 0)","(1, 1)","(0, 0)"
empty,169,9.68946275878,0.695742086471,0.08,none_r,True,4.12512499979,right,4.52566199983,True,"[0.4263048508459335, 0.42616878242085998, 0.42566969994064374]",False,False,lighter,True,0.675724400207,left,down,"(0, 0)","(1, 0)","(0, 1)","(0, 0)","(0, 0)","(1, 0)","(0, 1)","(0, 0)"
interactor,170,9.4585411317,0.715864564211,0.0,45_bottom_l,True,4.12445749994,,4.52630080003,True,"[0.27953436127003206, 0.27941129210702176, 0.27895988934344462]",False,True,darker,,0.473780199885,right,up,"(0, 1)","(0, 0)","(0, 0)","(1, 0)","(1, 1)","(0, 0)","(0, 0)","(0, 0)"
interactor,171,9.38762471276,0.829893261302,0.0,45_top_r,False,,,4.55096600018,True,"[0.56150818314428941, 0.56136013994449696, 0.56081713544295719]",True,False,lighter,,0.849293299951,left,right,"(0, 0)","(1, 1)","(0, 0)","(0, 0)","(0, 0)","(0, 1)","(1, 0)","(0, 0)"
empty,172,9.35139878495,0.808944556782,0.08,none_r,False,,,4.55067100003,True,"[0.71147851584312494, 0.71131718997552928, 0.71072546625946575]",True,True,lighter,True,0.548477299977,left,right,"(0, 0)","(1, 1)","(0, 0)","(0, 0)","(0, 0)","(1, 1)","(0, 0)","(0, 0)"
empty,173,9.05418008757,0.87548357135,-0.08,none_r,False,,,4.55031400034,True,"[0.47533018213125788, 0.47518977159946618, 0.47467476279842913]",True,True,darker,True,0.551751599647,left,right,"(0, 0)","(1, 1)","(0, 0)","(0, 0)","(0, 0)","(1, 1)","(0, 0)","(0, 0)"
empty,174,10.0890011904,0.720364512941,-0.08,none_u,True,4.12659539981,right,4.55112279998,True,"[0.098828749344921807, 0.098721685031471607, 0.098328986114945671]",False,False,darker,True,0.47466580011,down,right,"(1, 0)","(0, 1)","(0, 0)","(0, 0)","(1, 0)","(0, 1)","(0, 0)","(0, 0)"
empty,175,9.660301565,0.716089859528,0.08,none_l,True,4.12630739994,right,4.52510590013,True,"[0.47684067608785163, 0.47670013177367099, 0.47618463227505559]",False,False,darker,False,0.525649299845,right,up,"(0, 1)","(0, 0)","(0, 0)","(1, 0)","(0, 1)","(0, 0)","(0, 0)","(1, 0)"
interactor,176,9.50055418217,0.729267763488,-0.16,45_top_r,False,,,4.54965439998,True,"[-0.066538455048409939, -0.066630873014133285, -0.066969850903565997]",True,False,darker,True,0.499255700037,left,right,"(0, 0)","(1, 1)","(0, 0)","(0, 0)","(0, 0)","(0, 1)","(1, 0)","(0, 0)"
empty,177,9.87362041461,0.772863056815,-0.16,none_u,True,4.12530439999,left,4.54900459992,True,"[0.034287129452557519, 0.034185781502345858, 0.033814049512869149]",False,False,darker,True,0.500875799917,down,left,"(1, 0)","(0, 0)","(0, 0)","(0, 1)","(1, 0)","(0, 0)","(0, 0)","(0, 1)"
interactor,178,9.44506970177,0.57512400811,0.08,45_bottom_d,False,,,4.55127010029,True,"[0.13375575522786587, 0.13364559747714733, 0.13324155220790135]",True,False,lighter,True,0.649643299635,up,down,"(0, 0)","(0, 0)","(1, 1)","(0, 0)","(0, 0)","(1, 0)","(0, 1)","(0, 0)"
interactor,179,9.50209002533,0.864432367068,0.0,45_bottom_d,True,4.12517839996,,4.52479470009,True,"[0.64891350822949256, 0.64875772365928075, 0.64818632474994908]",False,True,lighter,,0.600992899854,up,right,"(0, 0)","(0, 1)","(1, 0)","(0, 0)","(0, 0)","(1, 1)","(0, 0)","(0, 0)"
interactor,180,9.7494391653,0.774264233734,-0.16,45_bottom_l,False,,,4.54989669984,True,"[0.037558265329580287, 0.03745662765932356, 0.037083833011869682]",True,False,darker,True,0.650806600228,right,left,"(0, 0)","(0, 0)","(0, 0)","(1, 1)","(1, 0)","(0, 0)","(0, 0)","(0, 1)"
empty,181,9.43748152268,0.724232689029,0.08,none_d,False,,,4.55105780018,True,"[0.49715536118694525, 0.49701301762881567, 0.49649091872161355]",True,True,lighter,True,0.52609549975,up,down,"(0, 0)","(0, 0)","(1, 1)","(0, 0)","(0, 0)","(0, 0)","(1, 1)","(0, 0)"
empty,182,9.05402347873,0.75251382582,0.16,none_r,True,4.12444949988,left,4.52554009994,True,"[0.77204509881249095, 0.7718784086452577, 0.77126700932872261]",False,False,lighter,True,0.549986300059,left,up,"(0, 1)","(1, 0)","(0, 0)","(0, 0)","(0, 1)","(1, 0)","(0, 0)","(0, 0)"
empty,183,9.43614630671,0.760877425308,0.08,none_r,True,4.12499019969,right,4.52615519986,True,"[0.58920812500002917, 0.58905762845417065, 0.58850562537681061]",False,False,lighter,True,0.575089599937,left,down,"(0, 0)","(1, 0)","(0, 1)","(0, 0)","(0, 0)","(1, 0)","(0, 1)","(0, 0)"
empty,184,9.52430709587,0.825814423002,0.08,none_r,True,4.1255307002,left,4.52630850021,True,"[0.75478921522024556, 0.75462405338308347, 0.75401825979589154]",False,False,lighter,True,0.500643999781,left,up,"(0, 1)","(1, 0)","(0, 0)","(0, 0)","(0, 1)","(1, 0)","(0, 0)","(0, 0)"
empty,185,9.68081427461,0.660888680178,-0.16,none_r,True,4.12473589974,left,4.52556829993,True,"[-0.22078407759657526, -0.22086283423790432, -0.22115170404636553]",False,False,darker,True,0.524536799639,left,up,"(0, 1)","(1, 0)","(0, 0)","(0, 0)","(0, 1)","(1, 0)","(0, 0)","(0, 0)"
interactor,186,9.54970593956,0.720009424581,0.08,135_bottom_d,False,,,4.54995359993,True,"[0.48661273314761622, 0.48647132333567034, 0.4859526492962265]",True,False,lighter,True,0.401654100046,up,down,"(0, 0)","(0, 0)","(1, 1)","(0, 0)","(0, 0)","(0, 0)","(0, 1)","(1, 0)"
empty,187,9.6870339423,0.804873964532,0.08,none_u,False,,,4.54958150024,True,"[0.70105850790747204, 0.70089810492576721, 0.70030976624321495]",True,True,darker,False,0.751431500074,down,up,"(1, 1)","(0, 0)","(0, 0)","(0, 0)","(1, 1)","(0, 0)","(0, 0)","(0, 0)"
empty,188,9.52732230637,0.737597558864,-0.08,none_u,False,,,4.55163230002,True,"[0.13962858153206748, 0.13951790363313266, 0.13911195052332048]",True,True,darker,True,0.499402199872,down,up,"(1, 1)","(0, 0)","(0, 0)","(0, 0)","(1, 1)","(0, 0)","(0, 0)","(0, 0)"
empty,189,9.46358020831,0.800117474301,-0.08,none_r,False,,,4.55075259972,True,"[0.28986094231771209, 0.2897369585435039, 0.28928220109698177]",True,True,darker,True,0.551069499925,left,right,"(0, 0)","(1, 1)","(0, 0)","(0, 0)","(0, 0)","(1, 1)","(0, 0)","(0, 0)"
interactor,190,9.52798523121,0.817236260595,0.16,45_bottom_d,True,4.12681409996,,4.52573900018,True,"[0.94036026063925271, 0.94017866302772135, 0.93951258501354729]",False,True,lighter,True,0.400689499918,up,right,"(0, 0)","(0, 1)","(1, 0)","(0, 0)","(0, 0)","(1, 1)","(0, 0)","(0, 0)"
empty,191,9.72505962407,0.67507486058,0.0,none_l,True,4.1277236999,right,4.52639159979,True,"[0.18128060700659288, 0.18116624004457704, 0.18074675589880562]",False,False,darker,,0.525731100235,right,up,"(0, 1)","(0, 0)","(0, 0)","(1, 0)","(0, 1)","(0, 0)","(0, 0)","(1, 0)"
interactor,192,9.66384083022,0.843353010478,0.16,135_bottom_r,True,4.12573979981,,4.52566669974,True,"[1.0, 1.0, 1.0]",False,True,lighter,True,0.500104400329,left,up,"(0, 1)","(1, 0)","(0, 0)","(0, 0)","(1, 1)","(0, 0)","(0, 0)","(0, 0)"
interactor,193,9.65685338495,0.69597896611,0.08,135_bottom_r,False,,,4.55101249972,True,"[0.42689127839966257, 0.42675515803550179, 0.42625588504900724]",True,False,darker,False,0.724702100269,left,right,"(0, 0)","(1, 1)","(0, 0)","(0, 0)","(1, 0)","(0, 1)","(0, 0)","(0, 0)"
empty,194,9.0056684542,0.66465716878,0.0,none_d,True,4.12456779974,right,4.5244004,True,"[0.15642019093018944, 0.15630802582131564, 0.15589661780581743]",False,False,darker,,0.626415599603,up,left,"(0, 0)","(0, 0)","(1, 0)","(0, 1)","(0, 0)","(0, 0)","(1, 0)","(0, 1)"
empty,195,9.21604203052,0.792489530291,0.08,none_d,True,4.12517709984,right,4.52509870008,True,"[0.6694303337784584, 0.66927273206099236, 0.66869466807592803]",False,False,lighter,True,0.599780899938,up,left,"(0, 0)","(0, 0)","(1, 0)","(0, 1)","(0, 0)","(0, 0)","(1, 0)","(0, 1)"
interactor,196,9.70016068646,0.721480845317,-0.08,135_top_l,False,,,4.55091429967,True,"[0.10146347646838572, 0.10135617880074799, 0.1009626239693644]",True,False,darker,True,0.526480600238,right,left,"(0, 0)","(0, 0)","(0, 0)","(1, 1)","(0, 0)","(0, 0)","(1, 0)","(0, 1)"
interactor,197,9.06540030896,0.71922719994,0.16,135_bottom_d,True,4.12667440018,,4.52556930017,True,"[0.68662361258320126, 0.68646448808048466, 0.68588083870380601]",False,True,lighter,True,0.42542239977,up,left,"(0, 0)","(0, 0)","(1, 0)","(0, 1)","(0, 0)","(0, 0)","(0, 0)","(1, 1)"
empty,198,9.11334900795,0.88089463431,0.08,none_d,True,4.12510329997,left,4.5267262999,True,"[0.89759183050965885, 0.89741402083964794, 0.89676183653554875]",False,False,lighter,True,0.474870699923,up,right,"(0, 0)","(0, 1)","(1, 0)","(0, 0)","(0, 0)","(0, 1)","(1, 0)","(0, 0)"
empty,199,9.56850623173,0.788654937232,0.0,none_l,False,,,4.55099629983,True,"[0.45833737599599811, 0.45819847049386708, 0.45768898195908969]",True,True,darker,,0.625150000211,right,left,"(0, 0)","(0, 0)","(0, 0)","(1, 1)","(0, 0)","(0, 0)","(0, 0)","(1, 1)"
interactor,200,8.97213202732,0.662252565474,-0.16,135_top_l,False,,,4.55151319969,True,"[-0.21775645618807005, -0.21783548098169714, -0.21812533434026637]",True,False,darker,True,0.499639500398,right,left,"(0, 0)","(0, 0)","(0, 0)","(1, 1)","(0, 0)","(0, 0)","(1, 0)","(0, 1)"
empty,201,9.59398733263,0.769980056464,-0.08,none_l,True,4.12344849994,right,4.52331419988,True,"[0.21701667980222883, 0.21689914774498886, 0.21646805441381889]",False,False,darker,True,0.676755399909,right,up,"(0, 1)","(0, 0)","(0, 0)","(1, 0)","(0, 1)","(0, 0)","(0, 0)","(1, 0)"
interactor,202,9.79230229352,0.828843657919,-0.16,135_bottom_d,False,,,4.55093709985,True,"[0.16639906129857107, 0.16628601237476048, 0.16587136263326574]",True,False,darker,True,0.624766099732,up,down,"(0, 0)","(0, 0)","(1, 1)","(0, 0)","(0, 0)","(0, 0)","(0, 1)","(1, 0)"
interactor,203,9.62747811324,0.855791726119,0.0,135_top_l,True,4.12545049982,,4.52529679984,True,"[0.62696398473399961, 0.62681014420314329, 0.62624587579438917]",False,True,lighter,,0.599774300121,right,down,"(0, 0)","(0, 0)","(0, 1)","(1, 0)","(0, 0)","(0, 0)","(1, 1)","(0, 0)"
interactor,204,9.14966346463,0.649687841752,-0.08,45_top_u,False,,,4.5501962998,True,"[-0.065575867740637395, -0.065668370961403988, -0.066007661556001795]",True,False,darker,True,0.549584900029,down,up,"(1, 1)","(0, 0)","(0, 0)","(0, 0)","(0, 1)","(0, 0)","(0, 0)","(1, 0)"
interactor,205,9.32181168491,0.70589889209,-0.08,45_bottom_l,False,,,4.55023009982,True,"[0.064791884968629088, 0.064687835253830261, 0.064306193519530819]",True,False,darker,True,0.474623600021,right,left,"(0, 0)","(0, 0)","(0, 0)","(1, 1)","(1, 0)","(0, 0)","(0, 0)","(0, 1)"
empty,206,9.43542814158,0.616974269266,0.0,none_r,True,4.12584979972,left,4.52509389957,True,"[0.043890305914119354, 0.043788107423667455, 0.043413255755746505]",False,False,darker,,0.476732800249,left,up,"(0, 1)","(1, 0)","(0, 0)","(0, 0)","(0, 1)","(1, 0)","(0, 0)","(0, 0)"
empty,207,9.48599682679,0.800438416891,0.0,none_u,True,4.12481570011,right,4.52550909994,True,"[0.48768300255278363, 0.48754149794853663, 0.48702247622242845]",False,False,darker,,0.550063800067,down,right,"(1, 0)","(0, 1)","(0, 0)","(0, 0)","(1, 0)","(0, 1)","(0, 0)","(0, 0)"
interactor,208,9.2873916946,0.619543658405,0.0,45_top_u,True,4.12635530019,,4.52625230001,True,"[0.049900149282155137, 0.0497974185080714, 0.049420614488355774]",False,True,darker,,0.501381800044,down,left,"(1, 0)","(0, 0)","(0, 0)","(0, 1)","(0, 0)","(0, 0)","(0, 0)","(1, 1)"
interactor,209,9.39910183308,0.757452180403,0.16,45_bottom_l,False,,,4.55075500021,True,"[0.78478529600475699, 0.78461747745563537, 0.78400193937119322]",True,False,lighter,True,0.576216099784,right,left,"(0, 0)","(0, 0)","(0, 0)","(1, 1)","(1, 0)","(0, 0)","(0, 0)","(0, 1)"
interactor,210,9.45889253749,0.709321707096,-0.16,45_bottom_l,True,4.12501830002,,4.52483730018,True,"[-0.1120376415900437, -0.11212602975487707, -0.11245022682339756]",False,True,darker,True,0.425555900205,right,up,"(0, 1)","(0, 0)","(0, 0)","(1, 0)","(1, 1)","(0, 0)","(0, 0)","(0, 0)"
empty,211,9.43186168024,0.756371587394,-0.08,none_l,False,,,4.54995299969,True,"[0.18438181869801085, 0.18426717706590523, 0.18384668546355964]",True,True,darker,True,0.475989700295,right,left,"(0, 0)","(0, 0)","(0, 0)","(1, 1)","(0, 0)","(0, 0)","(0, 0)","(1, 1)"
interactor,212,9.53442280287,0.789195726294,-0.16,135_top_l,False,,,4.5494721001,True,"[0.072532034556624714, 0.07242729930733427, 0.072043143115665842]",True,False,darker,True,0.500527099706,right,left,"(0, 0)","(0, 0)","(0, 0)","(1, 1)","(0, 0)","(0, 0)","(1, 0)","(0, 1)"
empty,213,9.5518664638,0.719894714199,0.16,none_r,True,4.12470290018,right,4.52439690009,True,"[0.68832878285890131, 0.68816950733157967, 0.68758530401496554]",False,False,lighter,True,0.450170100201,left,down,"(0, 0)","(1, 0)","(0, 1)","(0, 0)","(0, 0)","(1, 0)","(0, 1)","(0, 0)"
interactor,214,9.22476337537,0.676630812271,-0.08,135_top_l,True,4.12621190026,,4.52624269994,True,"[-0.003470982828175484, -0.0035689865938871579, -0.0039284525202086806]",False,True,darker,True,0.524575400166,right,down,"(0, 0)","(0, 0)","(0, 1)","(1, 0)","(0, 0)","(0, 0)","(1, 1)","(0, 0)"
empty,215,9.53904613674,0.743263774901,-0.08,none_d,False,,,4.55056550028,True,"[0.15310239124145619, 0.15299051998557345, 0.15258018978721388]",True,True,darker,True,0.524674700107,up,down,"(0, 0)","(0, 0)","(1, 1)","(0, 0)","(0, 0)","(0, 0)","(1, 1)","(0, 0)"
empty,216,8.86297513512,0.673427418287,0.08,none_l,False,,,4.54974510008,True,"[0.37126405893547365, 0.37113286539826373, 0.37065166341547839]",True,True,darker,False,0.47611559974,right,left,"(0, 0)","(0, 0)","(0, 0)","(1, 1)","(0, 0)","(0, 0)","(0, 0)","(1, 1)"
empty,217,10.0909263849,0.960820745007,0.08,none_u,False,,,4.5495813,True,"[1.0, 1.0, 1.0]",True,True,lighter,True,0.600547899958,down,up,"(1, 1)","(0, 0)","(0, 0)","(0, 0)","(1, 1)","(0, 0)","(0, 0)","(0, 0)"
interactor,218,9.34396214638,0.674589100514,0.08,45_top_u,True,4.12487899978,,4.52579660015,True,"[0.3741194926633391, 0.37398804622425774, 0.37350591662808497]",False,True,darker,False,0.57438889984,down,left,"(1, 0)","(0, 0)","(0, 0)","(0, 1)","(0, 0)","(0, 0)","(0, 0)","(1, 1)"
interactor,219,9.56930171647,0.937804171236,0.0,135_top_u,False,,,4.54955569981,True,"[0.83747059758453024, 0.83729811277011135, 0.83666545939050629]",True,False,darker,,0.750297499821,down,up,"(1, 1)","(0, 0)","(0, 0)","(0, 0)","(0, 1)","(1, 0)","(0, 0)","(0, 0)"
empty,220,9.63570632475,0.836382230521,0.08,none_u,False,,,4.55078569986,True,"[0.78202353124670543, 0.78185595730332058, 0.78124131640305716]",True,True,,False,,down,up,"(1, 1)","(0, 0)","(0, 0)","(0, 0)","(1, 1)","(0, 0)","(0, 0)","(0, 0)"
interactor,221,9.53580313733,0.66645934248,-0.16,45_top_r,True,4.12652359996,,4.5265037003,True,"[-0.20840510718205929, -0.20848496021191265, -0.20877785144050609]",False,True,darker,True,0.551115799695,left,down,"(0, 0)","(1, 0)","(0, 1)","(0, 0)","(0, 0)","(0, 0)","(1, 1)","(0, 0)"
empty,222,9.47435629803,0.903260994417,0.16,none_u,False,,,4.54915940017,True,"[1.0, 1.0, 1.0]",True,True,lighter,True,0.600913799834,down,up,"(1, 1)","(0, 0)","(0, 0)","(0, 0)","(1, 1)","(0, 0)","(0, 0)","(0, 0)"
interactor,223,9.79578213038,0.613599027208,0.08,45_bottom_l,False,,,4.55008229986,True,"[0.22572269056840288, 0.22560438743166666, 0.22517046587441625]",True,False,darker,False,0.476151400246,right,left,"(0, 0)","(0, 0)","(0, 0)","(1, 1)","(1, 0)","(0, 0)","(0, 0)","(0, 1)"
interactor,224,9.41548131024,0.783734154842,0.08,45_bottom_l,True,4.12549930019,,4.52547729993,True,"[0.64713781856287445, 0.64698219126307444, 0.64641136920253817]",False,True,darker,False,0.750980000012,right,up,"(0, 1)","(0, 0)","(0, 0)","(1, 0)","(1, 1)","(0, 0)","(0, 0)","(0, 0)"
interactor,225,9.36174514602,0.603866090861,0.16,45_top_r,False,,,4.54996789992,True,"[0.39696181821233756, 0.39682834865963978, 0.39633879852809484]",True,False,lighter,True,0.624796200078,left,right,"(0, 0)","(1, 1)","(0, 0)","(0, 0)","(0, 0)","(0, 1)","(1, 0)","(0, 0)"
empty,226,9.56269042148,0.66636824503,0.16,none_u,True,4.12460229965,left,4.5245300997,True,"[0.55263812400891577, 0.55249086641816136, 0.55195074343529393]",False,False,lighter,True,0.599674399942,down,left,"(1, 0)","(0, 0)","(0, 0)","(0, 1)","(1, 0)","(0, 0)","(0, 0)","(0, 1)"
empty,227,9.29737735426,0.758735465195,0.0,none_r,False,,,4.54969529994,True,"[0.38432027870925944, 0.38418792880047281, 0.38370248538699547]",True,True,darker,,0.70014640037,left,right,"(0, 0)","(1, 1)","(0, 0)","(0, 0)","(0, 0)","(1, 1)","(0, 0)","(0, 0)"
empty,228,9.18753927078,0.806052662113,0.16,none_d,True,4.12459640019,right,4.52549370006,True,"[0.91107165582195226, 0.9108926522622014, 0.91023608891533114]",False,False,lighter,True,0.475590399932,up,left,"(0, 0)","(0, 0)","(1, 0)","(0, 1)","(0, 0)","(0, 0)","(1, 0)","(0, 1)"
empty,229,8.82392479662,0.672524006584,-0.16,none_r,False,,,4.55044080038,True,"[-0.19488963363896883, -0.19497068371587867, -0.19526796556789139]",True,True,darker,True,0.499736999627,left,right,"(0, 0)","(1, 1)","(0, 0)","(0, 0)","(0, 0)","(1, 1)","(0, 0)","(0, 0)"
interactor,230,9.73568264397,0.577222457662,0.0,45_top_u,False,,,4.54995150026,True,"[-0.048280646604479505, -0.048374681639391626, -0.048719590742487218]",True,False,darker,,0.476215200033,down,up,"(1, 1)","(0, 0)","(0, 0)","(0, 0)","(0, 1)","(0, 0)","(0, 0)","(1, 0)"
interactor,231,9.43570673324,0.720552678376,0.16,135_top_l,True,4.12657299964,,4.52757809963,True,"[0.69000987389830026, 0.68985044947903873, 0.68926570004484544]",False,True,lighter,True,0.499803300016,right,down,"(0, 0)","(0, 0)","(0, 1)","(1, 0)","(0, 0)","(0, 0)","(1, 1)","(0, 0)"
empty,232,9.02471513475,0.851228348803,0.0,none_d,True,4.12468250003,right,4.52468150016,True,"[0.615394096518874, 0.61524128071723605, 0.61468077089096829]",False,False,darker,,0.601336999796,up,left,"(0, 0)","(0, 0)","(1, 0)","(0, 1)","(0, 0)","(0, 0)","(1, 0)","(0, 1)"
interactor,233,9.5140686529,0.736768556244,0.08,45_bottom_l,True,4.12382679991,,4.52485070005,True,"[0.52853028155339632, 0.52838515916136397, 0.52785286782844421]",False,True,darker,False,0.525065199938,right,up,"(0, 1)","(0, 0)","(0, 0)","(1, 0)","(1, 1)","(0, 0)","(0, 0)","(0, 0)"
interactor,234,9.46444528799,0.737126438558,-0.08,45_top_r,False,,,4.55028130021,True,"[0.13850959800637219, 0.13839901921428321, 0.13799342961635586]",True,False,darker,True,0.550735599827,left,right,"(0, 0)","(1, 1)","(0, 0)","(0, 0)","(0, 0)","(0, 1)","(1, 0)","(0, 0)"
interactor,235,9.0929230207,0.776980268037,-0.08,135_top_l,True,4.12502630008,,4.52478360012,True,"[0.23386707354555125, 0.23374804907192459, 0.23331148173844385]",False,True,darker,True,0.550347199664,right,down,"(0, 0)","(0, 0)","(0, 1)","(1, 0)","(0, 0)","(0, 0)","(1, 1)","(0, 0)"
interactor,236,9.27628053847,0.664686161305,0.16,45_bottom_l,False,,,4.55002329964,True,"[0.54840879798957642, 0.54826191498445787, 0.54772316593627424]",True,False,lighter,True,0.700702900067,right,left,"(0, 0)","(0, 0)","(0, 0)","(1, 1)","(1, 0)","(0, 0)","(0, 0)","(0, 1)"
interactor,237,9.34649497217,0.645431250434,0.08,135_bottom_d,True,4.12391790003,,4.52402359992,True,"[0.30278486876296262, 0.30265974033421816, 0.30220078443368381]",False,True,lighter,True,0.67592429975,up,left,"(0, 0)","(0, 0)","(1, 0)","(0, 1)","(0, 0)","(0, 0)","(0, 0)","(1, 1)"
interactor,238,9.88506372629,0.730852134668,-0.08,45_bottom_l,False,,,4.54913290031,True,"[0.12362631917645373, 0.1235170585760681, 0.12311630394543815]",True,False,darker,True,0.575725599658,right,left,"(0, 0)","(0, 0)","(0, 0)","(1, 1)","(1, 0)","(0, 0)","(0, 0)","(0, 1)"
empty,239,9.13467524765,0.785470407348,-0.16,none_d,True,4.12489929982,right,4.52481909981,True,"[0.06378665608894396, 0.063682695405895551, 0.063301380229259685]",False,False,darker,True,0.499547800049,up,left,"(0, 0)","(0, 0)","(1, 0)","(0, 1)","(0, 0)","(0, 0)","(1, 0)","(0, 1)"
interactor,240,9.90406091701,0.992444766072,-0.16,135_bottom_r,True,4.12446400011,,4.54932540003,True,"[0.56793445969311063, 0.56778584732676984, 0.56724075519136186]",False,True,darker,True,0.550553400069,left,up,"(0, 1)","(1, 0)","(0, 0)","(0, 0)","(1, 1)","(0, 0)","(0, 0)","(0, 0)"
interactor,241,9.83578647194,0.828558425032,-0.16,45_top_r,False,,,4.55139390007,True,"[0.16571868634063369, 0.16560569767670374, 0.16519126896114833]",True,False,darker,True,0.524700399954,left,right,"(0, 0)","(1, 1)","(0, 0)","(0, 0)","(0, 0)","(0, 1)","(1, 0)","(0, 0)"
interactor,242,9.52868082273,0.714375782086,0.16,135_bottom_r,False,,,4.55093079992,True,"[0.67424036315875768, 0.67408233542355078, 0.67350270885708041]",True,False,lighter,True,0.424294800032,left,right,"(0, 0)","(1, 1)","(0, 0)","(0, 0)","(1, 0)","(0, 1)","(0, 0)","(0, 0)"
empty,243,9.71320932062,0.798397317111,0.0,none_r,True,4.12487660022,left,4.5253316001,True,"[0.48259205762807866, 0.48245100392187901, 0.48193363603512385]",False,False,darker,,0.625434299931,left,up,"(0, 1)","(1, 0)","(0, 0)","(0, 0)","(0, 1)","(1, 0)","(0, 0)","(0, 0)"
interactor,244,9.38582338114,0.790740285126,-0.08,135_bottom_d,True,4.1245070002,,4.52449529991,True,"[0.26711235491209928, 0.26699038594924862, 0.26654301858641816]",False,True,darker,True,0.575456799939,up,left,"(0, 0)","(0, 0)","(1, 0)","(0, 1)","(0, 0)","(0, 0)","(0, 0)","(1, 1)"
interactor,245,9.66006798821,0.64974445232,0.0,45_bottom_l,False,,,4.5516303,True,"[0.12100249879608471, 0.12089347058389111, 0.12049356832496505]",True,False,darker,,0.600329299923,right,left,"(0, 0)","(0, 0)","(0, 0)","(1, 1)","(1, 0)","(0, 0)","(0, 0)","(0, 1)"
empty,246,9.67916842581,0.859069316329,-0.08,none_d,True,4.12520900043,right,4.52495250013,True,"[0.43454595485397673, 0.43440915652556344, 0.43390739684841839]",False,False,darker,True,0.525625099894,up,left,"(0, 0)","(0, 0)","(1, 0)","(0, 1)","(0, 0)","(0, 0)","(1, 0)","(0, 1)"
empty,247,9.27944977157,0.765007219902,0.0,none_u,False,,,4.54970439989,True,"[0.39977638039925778, 0.39964266156462647, 0.39915219709718186]",True,True,darker,,0.550290999934,down,up,"(1, 1)","(0, 0)","(0, 0)","(0, 0)","(1, 1)","(0, 0)","(0, 0)","(0, 0)"
empty,248,9.38418251657,0.787565278166,-0.16,none_r,False,,,4.5507912999,True,"[0.068702875898897675, 0.068598479792966627, 0.068215567538006949]",True,True,darker,True,0.52477730019,left,right,"(0, 0)","(1, 1)","(0, 0)","(0, 0)","(0, 0)","(1, 1)","(0, 0)","(0, 0)"
empty,249,9.40084535061,0.688709256906,-0.16,none_r,False,,,4.54871559981,True,"[-0.15862474292001283, -0.15870900492882822, -0.1590180677575096]",True,True,darker,True,0.451504300348,left,right,"(0, 0)","(1, 1)","(0, 0)","(0, 0)","(0, 0)","(1, 1)","(0, 0)","(0, 0)"
empty,250,9.50085977776,0.950432585351,-0.16,none_d,False,,,4.5508611002,True,"[0.46275746031776843, 0.46261816333479744, 0.46210723889578209]",True,True,darker,True,0.57438590005,up,down,"(0, 0)","(0, 0)","(1, 1)","(0, 0)","(0, 0)","(0, 0)","(1, 1)","(0, 0)"
interactor,251,9.7732506716,0.831760457399,-0.16,45_bottom_d,False,,,4.55104039982,True,"[0.1733607543393163, 0.17324708882784745, 0.17283017751761154]",True,False,darker,True,0.526460600086,up,down,"(0, 0)","(0, 0)","(1, 1)","(0, 0)","(0, 0)","(1, 0)","(0, 1)","(0, 0)"
empty,252,9.93073732932,0.718553876705,0.08,none_u,True,4.12508739997,right,4.55026090005,True,"[0.4829824360628503, 0.48284134778136623, 0.48232385307665671]",False,False,darker,False,0.575357399881,down,right,"(1, 0)","(0, 1)","(0, 0)","(0, 0)","(1, 0)","(0, 1)","(0, 0)","(0, 0)"
empty,253,9.64352643934,0.691836362209,0.08,none_r,True,4.12582839979,left,4.52427679999,True,"[0.41664216444408986, 0.41650695182997133, 0.41601100836053906]",False,False,darker,False,0.65084079979,left,up,"(0, 1)","(1, 0)","(0, 0)","(0, 0)","(0, 1)","(1, 0)","(0, 0)","(0, 0)"
empty,254,9.61296632289,0.627405504894,0.0,none_d,True,4.12472590012,left,4.5241892999,True,"[0.068327777028544423, 0.068223414144607641, 0.06784062374389821]",False,False,darker,,0.576505899895,up,right,"(0, 0)","(0, 1)","(1, 0)","(0, 0)","(0, 0)","(0, 1)","(1, 0)","(0, 0)"
empty,255,9.69276853194,0.766195010488,0.0,none_l,False,,,4.54984570015,True,"[0.40270714699234422, 0.40257316858371439, 0.40208175203032215]",True,True,lighter,,0.624694800004,right,left,"(0, 0)","(0, 0)","(0, 0)","(1, 1)","(0, 0)","(0, 0)","(0, 0)","(1, 1)"
interactor,256,9.35107617396,0.785601280153,0.08,135_bottom_r,True,4.12502099993,,4.52584300004,True,"[0.65188708444891064, 0.65173103651310926, 0.65115867161073671]",False,True,lighter,True,0.925070900004,left,up,"(0, 1)","(1, 0)","(0, 0)","(0, 0)","(1, 1)","(0, 0)","(0, 0)","(0, 0)"
interactor,257,9.09019879757,0.627769449285,0.08,45_top_u,True,4.12479329994,,4.52573069977,True,"[0.25992084805768711, 0.25979951603679008, 0.25935448489979041]",False,True,darker,False,0.524179399945,down,left,"(1, 0)","(0, 0)","(0, 0)","(0, 1)","(0, 0)","(0, 0)","(0, 0)","(1, 1)"
empty,258,9.71503355054,0.586445361842,-0.08,none_d,True,4.12497040024,left,4.52434560005,True,"[-0.20843621735103035, -0.20851606762549746, -0.20880894874767286]",False,False,darker,True,0.526048600208,up,right,"(0, 0)","(0, 1)","(1, 0)","(0, 0)","(0, 0)","(0, 1)","(1, 0)","(0, 0)"
empty,259,9.40245642885,0.696255531347,0.08,none_d,True,4.12404349959,right,4.52454989962,True,"[0.42757600964494857, 0.4274398286350749, 0.42694033320746261]",False,False,lighter,True,0.551228700206,up,left,"(0, 0)","(0, 0)","(1, 0)","(0, 1)","(0, 0)","(0, 0)","(1, 0)","(0, 1)"
empty,260,9.68390545867,0.793772332906,0.0,none_d,False,,,4.55016409978,True,"[0.47106839067348183, 0.47092835760274521, 0.47041473328308303]",True,True,lighter,,0.551023700275,up,down,"(0, 0)","(0, 0)","(1, 1)","(0, 0)","(0, 0)","(0, 0)","(1, 1)","(0, 0)"
empty,261,9.62281376529,0.770380870869,0.0,none_d,True,4.12509940006,left,4.52674860042,True,"[0.41304442899734717, 0.41290953502974959, 0.41241476031711022]",False,False,lighter,,0.499363899697,up,right,"(0, 0)","(0, 1)","(1, 0)","(0, 0)","(0, 0)","(0, 1)","(1, 0)","(0, 0)"
interactor,262,9.40254526993,0.809404164228,0.16,135_top_u,False,,,4.54964900017,True,"[0.91984001946648974, 0.91966023930473084, 0.91900082747588629]",True,False,lighter,True,0.50151219964,down,up,"(1, 1)","(0, 0)","(0, 0)","(0, 0)","(0, 1)","(1, 0)","(0, 0)","(0, 0)"
empty,263,9.55763628495,0.743668550981,-0.08,none_d,True,4.12469169963,left,4.5267750998,True,"[0.15406602111529111, 0.15395406451202609, 0.15354342126981502]",False,False,darker,True,0.499427000061,up,right,"(0, 0)","(0, 1)","(1, 0)","(0, 0)","(0, 0)","(0, 1)","(1, 0)","(0, 0)"
empty,264,9.62996160147,0.615766030391,-0.16,none_u,False,,,4.54966010014,True,"[-0.31976156199963357, -0.31983155234017735, -0.32008826842057192]",True,True,darker,True,0.524543999694,down,up,"(1, 1)","(0, 0)","(0, 0)","(0, 0)","(1, 1)","(0, 0)","(0, 0)","(0, 0)"
empty,265,9.56703729009,0.721797433909,-0.16,none_l,False,,,4.5495544998,True,"[-0.083626575787329238, -0.083717480281505385, -0.08405090694087114]",True,True,darker,True,0.477068299893,right,left,"(0, 0)","(0, 0)","(0, 0)","(1, 1)","(0, 0)","(0, 0)","(0, 0)","(1, 1)"
empty,266,9.57714572728,0.668859654858,-0.16,none_r,True,4.12523089955,right,4.52543079993,True,"[-0.20306067536883043, -0.20314100174771821, -0.20343562916316593]",False,False,darker,True,0.55029999977,left,down,"(0, 0)","(1, 0)","(0, 1)","(0, 0)","(0, 0)","(1, 0)","(0, 1)","(0, 0)"
interactor,267,9.7737895268,0.6719811534,-0.08,135_top_u,False,,,4.55005829968,True,"[-0.014239703988471297, -0.014336753983237194, -0.014692721593413505]",True,False,darker,True,0.474712100346,down,up,"(1, 1)","(0, 0)","(0, 0)","(0, 0)","(0, 1)","(1, 0)","(0, 0)","(0, 0)"
empty,268,9.90090993736,0.777126416515,-0.16,none_l,True,4.12708090013,right,4.55082320003,True,"[0.044246006826022422, 0.044143776831624182, 0.043768809611056225]",False,False,darker,True,0.476381999906,right,up,"(0, 1)","(0, 0)","(0, 0)","(1, 0)","(0, 1)","(0, 0)","(0, 0)","(1, 0)"
interactor,269,9.48668981238,0.804631063168,-0.08,45_bottom_d,False,,,4.54963109968,True,"[0.30083717119810016, 0.30071221527427117, 0.30025389210084952]",True,False,darker,True,0.551297199912,up,down,"(0, 0)","(0, 0)","(1, 1)","(0, 0)","(0, 0)","(1, 0)","(0, 1)","(0, 0)"
interactor,270,9.4940820373,0.799295830463,-0.16,135_top_u,True,4.1247363002,,4.52563760011,True,"[0.096307559316873848, 0.096200718301785448, 0.095808838416568731]",False,True,darker,True,0.624320300296,down,right,"(1, 0)","(0, 1)","(0, 0)","(0, 0)","(0, 0)","(1, 1)","(0, 0)","(0, 0)"
interactor,271,9.30877816249,0.631614893162,0.0,45_bottom_l,True,4.12606480019,,4.52474279981,True,"[0.078218094893748535, 0.078112856037850786, 0.07772685267822288]",False,True,darker,,0.500874100253,right,up,"(0, 1)","(0, 0)","(0, 0)","(1, 0)","(1, 1)","(0, 0)","(0, 0)","(0, 0)"
empty,272,9.4639002068,0.635237983028,0.16,none_l,False,,,4.55055140005,True,"[0.47471841029945638, 0.47457805395146058, 0.47406324389001875]",True,True,lighter,True,0.574832399841,right,left,"(0, 0)","(0, 0)","(0, 0)","(1, 1)","(0, 0)","(0, 0)","(0, 0)","(1, 1)"
empty,273,9.22411283706,0.723992152222,-0.08,none_l,True,4.12527840026,right,4.52514029993,True,"[0.10739476023238748, 0.10728693723903771, 0.10689145557665403]",False,False,darker,True,0.575152300298,right,up,"(0, 1)","(0, 0)","(0, 0)","(1, 0)","(0, 1)","(0, 0)","(0, 0)","(1, 0)"
empty,274,9.61103219674,0.755143327421,-0.08,none_u,True,4.12551450031,left,4.52463150024,True,"[0.18144431296907704, 0.18132993150784715, 0.18091039418071864]",False,False,darker,True,0.676242999732,down,left,"(1, 0)","(0, 0)","(0, 0)","(0, 1)","(1, 0)","(0, 0)","(0, 0)","(0, 1)"
interactor,275,9.62651186647,0.7877631833,-0.16,45_bottom_l,False,,,4.54970890004,True,"[0.069167529841654307, 0.069063092581957752, 0.06868002937997586]",True,False,darker,True,0.600690000225,right,left,"(0, 0)","(0, 0)","(0, 0)","(1, 1)","(1, 0)","(0, 0)","(0, 0)","(0, 1)"
empty,276,9.66252247894,0.608542630117,0.16,none_l,True,4.12491879985,right,4.52479649987,True,"[0.40850302799047555, 0.40836853624856984, 0.4078752368509877]",False,False,lighter,True,0.701302099973,right,up,"(0, 1)","(0, 0)","(0, 0)","(1, 0)","(0, 1)","(0, 0)","(0, 0)","(1, 0)"
interactor,277,9.38071797923,0.869015065031,0.16,135_top_u,True,4.12489550002,,4.5257154,True,"[1.0, 1.0, 1.0]",False,True,lighter,True,0.524188900366,down,right,"(1, 0)","(0, 1)","(0, 0)","(0, 0)","(0, 0)","(1, 1)","(0, 0)","(0, 0)"
interactor,278,9.80108615405,0.80236741858,-0.16,135_bottom_r,False,,,4.55008949991,True,"[0.10355675139586862, 0.10344926832972612, 0.10305503347911227]",True,False,darker,True,0.575330100022,left,right,"(0, 0)","(1, 1)","(0, 0)","(0, 0)","(1, 0)","(0, 1)","(0, 0)","(0, 0)"
empty,279,9.73564386296,0.808475124676,-0.16,none_r,True,4.12575120013,left,4.52494490007,True,"[0.11799715619751017, 0.11788839416441133, 0.11748946821812156]",False,False,darker,True,0.526191100013,left,up,"(0, 1)","(1, 0)","(0, 0)","(0, 0)","(0, 1)","(1, 0)","(0, 0)","(0, 0)"
interactor,280,9.66929770277,0.722456852973,0.08,135_bottom_r,True,4.12433120003,,4.52463570004,True,"[0.49272061194312355, 0.49257866116468296, 0.49205800292575175]",False,True,darker,False,0.550182200037,left,up,"(0, 1)","(1, 0)","(0, 0)","(0, 0)","(1, 1)","(0, 0)","(0, 0)","(0, 0)"
interactor,281,9.52246801706,0.884073101438,-0.16,135_top_l,True,4.12526049977,,4.52606569976,True,"[0.29947938133669472, 0.2993545456704636, 0.29889666358731759]",False,True,darker,True,0.600432200357,right,down,"(0, 0)","(0, 0)","(0, 1)","(1, 0)","(0, 0)","(0, 0)","(1, 1)","(0, 0)"
interactor,282,9.58290235856,0.76832183077,0.16,45_top_r,True,4.12574970024,,4.52474720031,True,"[0.81288766677228996, 0.81271735923452249, 0.81209269184160049]",False,True,lighter,True,0.401491399854,left,down,"(0, 0)","(1, 0)","(0, 1)","(0, 0)","(0, 0)","(0, 0)","(1, 1)","(0, 0)"
empty,283,9.62075160217,0.685397272105,0.16,none_u,False,,,4.55030700006,True,"[0.60063267022651767, 0.60048116182427136, 0.59992544738040499]",True,True,darker,False,0.700578299817,down,up,"(1, 1)","(0, 0)","(0, 0)","(0, 0)","(1, 1)","(0, 0)","(0, 0)","(0, 0)"
empty,284,9.64243174992,0.873720691706,-0.08,none_l,False,,,4.55041679973,True,"[0.47093981538763496, 0.47079979370463643, 0.4702862111538153]",True,True,darker,True,0.575089700054,right,left,"(0, 0)","(0, 0)","(0, 0)","(1, 1)","(0, 0)","(0, 0)","(0, 0)","(1, 1)"
interactor,285,9.75907680571,0.856464883502,-0.08,45_top_u,True,4.12549160002,,4.52536229976,True,"[0.42809437262220196, 0.42795814570162682, 0.42745848187912894]",False,True,darker,True,0.550085700117,down,left,"(1, 0)","(0, 0)","(0, 0)","(0, 1)","(0, 0)","(0, 0)","(0, 0)","(1, 1)"
interactor,286,9.65130565413,0.652201562598,0.08,135_top_l,True,4.12417440023,,4.52522000019,True,"[0.31928561776867315, 0.3191590278910974, 0.31869471157349838]",False,True,darker,False,0.525721299928,right,down,"(0, 0)","(0, 0)","(0, 1)","(1, 0)","(0, 0)","(0, 0)","(1, 1)","(0, 0)"
interactor,287,9.39683766841,0.78510671478,0.08,45_top_r,True,4.12540399982,,4.52540239971,True,"[0.65062884621363781, 0.65047290971828109, 0.64990095356594169]",False,True,lighter,True,0.426262100227,left,down,"(0, 0)","(1, 0)","(0, 1)","(0, 0)","(0, 0)","(0, 0)","(1, 1)","(0, 0)"
interactor,288,9.51558654032,0.704911984303,0.08,135_top_u,False,,,4.55068709981,True,"[0.4490387492194079, 0.44890066728396594, 0.44839419949192227]",True,False,darker,False,0.549989699852,down,up,"(1, 1)","(0, 0)","(0, 0)","(0, 0)","(0, 1)","(1, 0)","(0, 0)","(0, 0)"
interactor,289,9.40866922552,0.759954930818,0.08,135_bottom_d,False,,,4.55043039983,True,"[0.58687827425636363, 0.58672798406220728, 0.58617673785786462]",True,False,lighter,True,0.52544260025,up,down,"(0, 0)","(0, 0)","(1, 1)","(0, 0)","(0, 0)","(0, 0)","(0, 1)","(1, 0)"
empty,290,9.38225105467,0.871831604382,-0.08,none_r,False,,,4.55018050037,True,"[0.46623783968228305, 0.46609823444685805, 0.46558617937523183]",True,True,lighter,False,0.576675499789,left,right,"(0, 0)","(1, 1)","(0, 0)","(0, 0)","(0, 0)","(1, 1)","(0, 0)","(0, 0)"
empty,291,10.0503629928,0.705028677155,0.0,none_d,False,,,4.55098529998,True,"[0.25329294527596646, 0.25317220027937726, 0.25272932227634515]",True,True,lighter,,0.674945599865,up,down,"(0, 0)","(0, 0)","(1, 1)","(0, 0)","(0, 0)","(0, 0)","(1, 1)","(0, 0)"
empty,292,9.43943836897,0.683443186444,-0.16,none_d,False,,,4.55117439991,True,"[-0.17045486472987004, -0.17053807896093265, -0.17084329866789882]",True,True,darker,True,0.549916299991,up,down,"(0, 0)","(0, 0)","(1, 1)","(0, 0)","(0, 0)","(0, 0)","(1, 1)","(0, 0)"
empty,293,9.82761825916,0.658536799795,-0.16,none_l,True,4.12647579983,right,4.55032459972,True,"[-0.22600005837542403, -0.22607835304445001, -0.22636552839453428]",False,False,darker,True,0.476407399867,right,up,"(0, 1)","(0, 0)","(0, 0)","(1, 0)","(0, 1)","(0, 0)","(0, 0)","(1, 0)"
interactor,294,9.24661059858,0.804073936908,0.16,45_bottom_l,True,4.12590759993,,4.52473449986,True,"[0.90589838583941806, 0.90571984046913268, 0.90506495770565176]",False,True,lighter,True,0.425392800011,right,up,"(0, 1)","(0, 0)","(0, 0)","(1, 0)","(1, 1)","(0, 0)","(0, 0)","(0, 0)"
interactor,295,9.50226921824,0.836072232467,-0.16,45_top_r,True,4.12519690022,,4.52412980003,True,"[0.18366575865169787, 0.18355118044005359, 0.18313092145626952]",False,True,darker,True,0.551799899898,left,down,"(0, 0)","(1, 0)","(0, 1)","(0, 0)","(0, 0)","(0, 0)","(1, 1)","(0, 0)"
interactor,296,9.30045770545,0.981827041931,-0.08,45_top_u,True,4.1258628997,,4.52477709996,True,"[0.74453390094338823, 0.74436964740542289, 0.74376718534952291]",False,True,darker,True,0.600302400067,down,left,"(1, 0)","(0, 0)","(0, 0)","(0, 1)","(0, 0)","(0, 0)","(0, 0)","(1, 1)"
interactor,297,9.63075864546,0.710949263639,-0.16,45_top_u,True,4.1259331,,4.52588940039,True,"[-0.10834026069455749, -0.10842897633137383, -0.10875437452740944]",False,True,darker,True,0.549839699641,down,left,"(1, 0)","(0, 0)","(0, 0)","(0, 1)","(0, 0)","(0, 0)","(0, 0)","(1, 1)"
interactor,298,9.46336903134,0.743591903504,0.16,45_top_u,True,4.12608089997,,4.52686179988,True,"[0.74907162786252846, 0.74890697242428117, 0.74830303624688477]",False,True,lighter,True,0.523929399904,down,left,"(1, 0)","(0, 0)","(0, 0)","(0, 1)","(0, 0)","(0, 0)","(0, 0)","(1, 1)"
interactor,299,9.93536254512,0.853693321931,0.08,45_top_u,False,,,4.55043779965,True,"[0.82680556891628187, 0.82663402868890534, 0.82600483994000529]",True,False,lighter,True,0.651483800262,down,up,"(1, 1)","(0, 0)","(0, 0)","(0, 0)","(0, 1)","(0, 0)","(0, 0)","(1, 0)"
empty,300,9.64138486582,0.765231007747,-0.16,none_u,False,,,4.55037300009,True,"[0.016502531517109453, 0.016402758724476607, 0.016036804221963408]",True,True,darker,True,0.475759999827,down,up,"(1, 1)","(0, 0)","(0, 0)","(0, 0)","(1, 1)","(0, 0)","(0, 0)","(0, 0)"
interactor,301,9.72946418699,0.751419882096,0.08,135_top_l,False,,,4.55084310006,True,"[0.56535257156982022, 0.56520418787778826, 0.56465993449201268]",True,False,darker,False,0.599712300114,right,left,"(0, 0)","(0, 0)","(0, 0)","(1, 1)","(0, 0)","(0, 0)","(1, 0)","(0, 1)"
interactor,302,9.49208305735,0.913117392425,-0.08,135_top_l,False,,,4.5497339,True,"[0.56962937230455557, 0.56948060982211901, 0.56893496707906932]",True,False,darker,True,0.476653499994,right,left,"(0, 0)","(0, 0)","(0, 0)","(1, 1)","(0, 0)","(0, 0)","(1, 0)","(0, 1)"
interactor,303,10.1884122813,0.660931956372,0.16,45_top_u,False,,,4.54959939979,True,"[0.53897724098407518, 0.53883119331909635, 0.53829550819722871]",True,False,darker,False,0.550335200038,down,up,"(1, 1)","(0, 0)","(0, 0)","(0, 0)","(0, 1)","(0, 0)","(0, 0)","(1, 0)"
empty,304,9.73108120518,0.881455257826,-0.08,none_d,False,,,4.54917779984,True,"[0.49022043600417731, 0.49007870666291153, 0.48955886062867182]",True,True,lighter,False,0.650535400026,up,down,"(0, 0)","(0, 0)","(1, 1)","(0, 0)","(0, 0)","(0, 0)","(1, 1)","(0, 0)"
interactor,305,9.72161295656,0.560678109381,-0.08,135_bottom_d,True,4.12457509991,,4.52427660022,True,"[-0.26540473991620028, -0.26547954456633205, -0.2657539189503938]",False,True,darker,True,0.525517299771,up,left,"(0, 0)","(0, 0)","(1, 0)","(0, 1)","(0, 0)","(0, 0)","(0, 0)","(1, 1)"
empty,306,9.67014510751,0.794605753781,-0.08,none_d,False,,,4.54998459993,True,"[0.27648075345788592, 0.27635795474875446, 0.27590754397720207]",True,True,lighter,False,0.599410499912,up,down,"(0, 0)","(0, 0)","(1, 1)","(0, 0)","(0, 0)","(0, 0)","(1, 1)","(0, 0)"
interactor,307,10.0692628282,0.807684076922,0.0,135_bottom_r,True,4.12415749999,,4.55008399999,True,"[0.50578142339353316, 0.50563831583683805, 0.50511341467556692]",False,True,darker,,0.474765299819,left,up,"(0, 1)","(1, 0)","(0, 0)","(0, 0)","(1, 1)","(0, 0)","(0, 0)","(0, 0)"
empty,308,9.57947525542,0.743826778481,0.0,none_u,False,,,4.54882370029,True,"[0.34770777792368435, 0.34757867073415172, 0.34710512122160764]",True,True,darker,,0.476034999825,down,up,"(1, 1)","(0, 0)","(0, 0)","(0, 0)","(1, 1)","(0, 0)","(0, 0)","(0, 0)"
interactor,309,9.45453189222,0.771210559855,-0.08,45_bottom_d,False,,,4.55045450013,True,"[0.21997557397499334, 0.21985777985253407, 0.21942572529791771]",True,False,darker,True,0.600320099853,up,down,"(0, 0)","(0, 0)","(1, 1)","(0, 0)","(0, 0)","(1, 0)","(0, 1)","(0, 0)"
empty,310,9.68544685795,0.687542332011,0.16,none_u,True,4.1255806,right,4.52544899983,True,"[0.60605995979306382, 0.60590797070318403, 0.60535049315537615]",False,False,lighter,True,0.550254500005,down,right,"(1, 0)","(0, 1)","(0, 0)","(0, 0)","(1, 0)","(0, 1)","(0, 0)","(0, 0)"
interactor,311,9.37297776234,0.827421970261,-0.08,135_bottom_d,True,4.12623280007,,4.52630250016,True,"[0.35652014805566212, 0.35639026036652677, 0.35591384807610416]",False,True,darker,True,0.500655000098,up,left,"(0, 0)","(0, 0)","(1, 0)","(0, 1)","(0, 0)","(0, 0)","(0, 0)","(1, 1)"
empty,312,9.59924101719,0.771751758823,-0.16,none_l,True,4.12639009999,right,4.52670719987,True,"[0.031694063162350572, 0.031592944876482454, 0.031222055267965843]",False,False,darker,True,0.774258799851,right,up,"(0, 1)","(0, 0)","(0, 0)","(1, 0)","(0, 1)","(0, 0)","(0, 0)","(1, 0)"
interactor,313,9.54510168476,0.550479741483,0.16,135_top_u,True,4.12489430001,,4.52562759956,True,"[0.26648135538443252, 0.26635944230834996, 0.26591227993140376]",False,True,lighter,True,0.726330900099,down,right,"(1, 0)","(0, 1)","(0, 0)","(0, 0)","(0, 0)","(1, 1)","(0, 0)","(0, 0)"
interactor,314,9.32367083373,0.775242138239,0.08,135_top_u,True,4.12536029983,,4.52624850022,True,"[0.62556975281796445, 0.62541603577232818, 0.6248522202923803]",False,True,lighter,True,0.551310400013,down,right,"(1, 0)","(0, 1)","(0, 0)","(0, 0)","(0, 0)","(1, 1)","(0, 0)","(0, 0)"
empty,315,9.68178390041,0.651964193031,0.0,none_r,True,4.12487370009,right,4.52347340016,True,"[0.12626162846136646, 0.1261521344552321, 0.12575052372062445]",False,False,lighter,,0.627249700017,left,down,"(0, 0)","(1, 0)","(0, 1)","(0, 0)","(0, 0)","(1, 0)","(0, 1)","(0, 0)"
interactor,316,8.90312499221,0.803707427594,-0.08,45_bottom_d,False,,,4.54879279993,True,"[0.29858966246617769, 0.2984649056011337, 0.29800731255118351]",True,False,lighter,False,0.600720599759,up,down,"(0, 0)","(0, 0)","(1, 1)","(0, 0)","(0, 0)","(1, 0)","(0, 1)","(0, 0)"
empty,317,9.79466948594,0.709249741257,-0.08,none_r,True,4.12496569986,left,4.5256719999,True,"[0.072658932885748317, 0.072554186397245868, 0.072169988981511057]",False,False,darker,True,0.650382000022,left,up,"(0, 1)","(1, 0)","(0, 0)","(0, 0)","(0, 1)","(1, 0)","(0, 0)","(0, 0)"
interactor,318,9.19414523119,0.816556329397,-0.16,45_bottom_d,False,,,4.55073540006,True,"[0.13715576884031533, 0.13704530995502773, 0.13664016016070968]",True,False,lighter,False,0.526180799585,up,down,"(0, 0)","(0, 0)","(1, 1)","(0, 0)","(0, 0)","(1, 0)","(0, 1)","(0, 0)"
interactor,319,9.5229119192,0.818751955976,0.0,45_top_r,True,4.12557590008,,4.52455320023,True,"[0.53350544613935647, 0.53335988310378535, 0.5328259755437994]",False,True,lighter,,0.500405699946,left,down,"(0, 0)","(1, 0)","(0, 1)","(0, 0)","(0, 0)","(0, 0)","(1, 1)","(0, 0)"
empty,320,9.26890418672,0.781089282247,0.16,none_r,True,4.1253535999,right,4.5250316998,True,"[0.84600177100506579, 0.84582853059625496, 0.84519310578805729]",False,False,lighter,True,0.426838800311,left,down,"(0, 0)","(1, 0)","(0, 1)","(0, 0)","(0, 0)","(1, 0)","(0, 1)","(0, 0)"
empty,321,9.47897024134,0.724039071786,0.08,none_u,False,,,4.55025279988,True,"[0.49667172686327898, 0.49652942613998019, 0.49600748434574893]",True,True,lighter,True,0.750558000058,down,up,"(1, 1)","(0, 0)","(0, 0)","(0, 0)","(1, 1)","(0, 0)","(0, 0)","(0, 0)"
empty,322,9.68915206487,0.699818873259,-0.08,none_l,True,4.12580509996,right,4.52550270036,True,"[0.050544251336306134, 0.050441463514982132, 0.050064450252908177]",False,False,darker,True,0.499806499574,right,up,"(0, 1)","(0, 0)","(0, 0)","(1, 0)","(0, 1)","(0, 0)","(0, 0)","(1, 0)"
empty,323,9.84322445386,0.768445538383,0.16,none_d,False,,,4.54911069991,True,"[0.81320797568493308, 0.81303763977784138, 0.81241286832968229]",True,True,lighter,True,0.474981200416,up,down,"(0, 0)","(0, 0)","(1, 1)","(0, 0)","(0, 0)","(0, 0)","(1, 1)","(0, 0)"
empty,324,9.50928839686,0.792880181495,0.08,none_l,False,,,4.55054640025,True,"[0.67042629917484597, 0.67026860924608389, 0.66969022171268122]",True,True,lighter,True,0.475442899857,right,left,"(0, 0)","(0, 0)","(0, 0)","(1, 1)","(0, 0)","(0, 0)","(0, 0)","(1, 1)"
interactor,325,9.68367756796,0.725862460308,0.0,135_top_u,True,4.12590789981,,4.52556579979,True,"[0.30383467886597293, 0.30370945745697964, 0.30325016051616993]",False,True,darker,,0.601403499953,down,right,"(1, 0)","(0, 1)","(0, 0)","(0, 0)","(0, 0)","(1, 1)","(0, 0)","(0, 0)"
empty,326,10.1070177604,0.751571100313,0.16,none_d,False,,,4.55107970024,True,"[0.7696149675004762, 0.76944849256665848, 0.76883788270018738]",True,True,lighter,True,0.475471599959,up,down,"(0, 0)","(0, 0)","(1, 1)","(0, 0)","(0, 0)","(0, 0)","(1, 1)","(0, 0)"
empty,327,9.06009711028,0.814583479777,0.0,none_l,True,4.12560070027,right,4.52591160033,True,"[0.52305272637215405, 0.52290808911971332, 0.52237757721997236]",False,False,darker,,0.550019599963,right,up,"(0, 1)","(0, 0)","(0, 0)","(1, 0)","(0, 1)","(0, 0)","(0, 0)","(1, 0)"
interactor,328,9.34639337521,0.600103967938,0.16,135_top_u,False,,,4.54960189993,True,"[0.38769009984969083, 0.38755745148044207, 0.38707091335018906]",True,False,darker,False,0.474714099895,down,up,"(1, 1)","(0, 0)","(0, 0)","(0, 0)","(0, 1)","(1, 0)","(0, 0)","(0, 0)"
empty,329,9.54233969422,0.806640137365,0.16,none_u,False,,,4.54928140016,True,"[0.91260808839437435, 0.91242894875488489, 0.9117718862840436]",True,True,lighter,True,0.47611729987,down,up,"(1, 1)","(0, 0)","(0, 0)","(0, 0)","(1, 1)","(0, 0)","(0, 0)","(0, 0)"
interactor,330,9.23827136483,0.678475218105,0.08,45_bottom_l,False,,,4.54863259988,True,"[0.38367961432982267, 0.38354732116380719, 0.3830620858759286]",True,False,darker,False,0.501463000197,right,left,"(0, 0)","(0, 0)","(0, 0)","(1, 1)","(1, 0)","(0, 0)","(0, 0)","(0, 1)"
empty,331,9.68746688183,0.830514703318,0.08,none_l,False,,,4.55149779981,True,"[0.76689256344979762, 0.76672632963559084, 0.76611660416661809]",True,True,lighter,True,0.549722000025,right,left,"(0, 0)","(0, 0)","(0, 0)","(1, 1)","(0, 0)","(0, 0)","(0, 0)","(1, 1)"
interactor,332,9.49982679618,0.717573571185,0.0,135_top_u,False,,,4.54928949988,True,"[0.2836821991929126, 0.28355876266155655, 0.28310601243543765]",True,False,darker,,0.476409700233,down,up,"(1, 1)","(0, 0)","(0, 0)","(0, 0)","(0, 1)","(1, 0)","(0, 0)","(0, 0)"
empty,333,9.25308084627,0.823328525092,0.0,none_r,True,4.12518289965,left,4.52459199959,True,"[0.54499681468414884, 0.54485023387373821, 0.54431259323908909]",False,False,darker,,0.501013900153,left,up,"(0, 1)","(1, 0)","(0, 0)","(0, 0)","(0, 1)","(1, 0)","(0, 0)","(0, 0)"
empty,334,9.55796989372,0.84595180291,-0.08,none_u,True,4.12565840036,right,4.52473780001,True,"[0.40210696159971193, 0.40197303634868287, 0.40148181477092582]",False,False,darker,True,0.576060300227,down,right,"(1, 0)","(0, 1)","(0, 0)","(0, 0)","(1, 0)","(0, 1)","(0, 0)","(0, 0)"
empty,335,9.64741799007,0.762553848616,0.16,none_l,True,4.12540889997,right,4.52432060009,True,"[0.79796483263699103, 0.79779584679428606, 0.79717602721855907]",False,False,lighter,True,0.700860400219,right,up,"(0, 1)","(0, 0)","(0, 0)","(1, 0)","(0, 1)","(0, 0)","(0, 0)","(1, 0)"
empty,336,9.25794106762,0.854004076074,-0.16,none_u,False,,,4.55137530016,True,"[0.22669780808595008, 0.22657941858438546, 0.22614518025141828]",True,True,darker,True,0.475998099893,down,up,"(1, 1)","(0, 0)","(0, 0)","(0, 0)","(1, 1)","(0, 0)","(0, 0)","(0, 0)"
empty,337,9.68753379441,0.883783554889,-0.08,none_l,False,,,4.55153059959,True,"[0.49603351866131207, 0.49589127446324488, 0.49536953999670041]",True,True,darker,True,0.499197700061,right,left,"(0, 0)","(0, 0)","(0, 0)","(1, 1)","(0, 0)","(0, 0)","(0, 0)","(1, 1)"
empty,338,9.80703379067,0.720229745446,0.0,none_u,True,4.1263621999,left,4.52711969987,True,"[0.29013375727359714, 0.29000974933654189, 0.28955490326362154]",False,False,darker,,0.574635100085,down,left,"(1, 0)","(0, 0)","(0, 0)","(0, 1)","(1, 0)","(0, 0)","(0, 0)","(0, 1)"
interactor,339,9.35078333343,0.885115889255,-0.08,135_bottom_d,False,,,4.54983479995,True,"[0.49936186621102929, 0.49921932722575746, 0.49869651151550776]",True,False,lighter,False,0.601376399864,up,down,"(0, 0)","(0, 0)","(1, 1)","(0, 0)","(0, 0)","(0, 0)","(0, 1)","(1, 0)"
interactor,340,9.42179951528,0.792324816663,0.0,135_top_l,True,4.12633599993,,4.52603639988,True,"[0.46746518457309039, 0.46732547063340357, 0.46681301684772469]",False,True,darker,,0.69926920021,right,down,"(0, 0)","(0, 0)","(0, 1)","(1, 0)","(0, 0)","(0, 0)","(1, 1)","(0, 0)"
interactor,341,9.69271331745,0.728768328134,0.08,135_bottom_r,False,,,4.55093799997,True,"[0.50849319971396878, 0.50834985197894489, 0.50782406987268947]",True,False,darker,False,0.551620699931,left,right,"(0, 0)","(1, 1)","(0, 0)","(0, 0)","(1, 0)","(0, 1)","(0, 0)","(0, 0)"
interactor,342,9.31446738031,0.700094080417,-0.08,45_bottom_l,True,4.12643849989,,4.52562680002,True,"[0.051188406878218018, 0.051085562004916873, 0.050708339483107601]",False,True,darker,True,0.551310199779,right,up,"(0, 1)","(0, 0)","(0, 0)","(1, 0)","(1, 1)","(0, 0)","(0, 0)","(0, 0)"
interactor,343,9.43734713991,0.744830582942,0.16,45_top_r,False,,,4.55071709957,True,"[0.75225778448134362, 0.75209284684954891, 0.75148787562045283]",True,False,lighter,True,0.574621700216,left,right,"(0, 0)","(1, 1)","(0, 0)","(0, 0)","(0, 0)","(0, 1)","(1, 0)","(0, 0)"
empty,344,9.07401100939,0.72033229079,-0.16,none_d,True,4.12640210008,left,4.52682340005,True,"[-0.086971405535576918, -0.08706201378274725, -0.087394353844015948]",False,False,darker,True,0.524136699736,up,right,"(0, 0)","(0, 1)","(1, 0)","(0, 0)","(0, 0)","(0, 1)","(1, 0)","(0, 0)"
empty,345,9.7779928014,0.727965680015,0.08,none_r,False,,,4.55147359986,True,"[0.50648564192372869, 0.50634247199535931, 0.50581734206235018]",True,True,lighter,True,0.549257799983,left,right,"(0, 0)","(1, 1)","(0, 0)","(0, 0)","(0, 0)","(1, 1)","(0, 0)","(0, 0)"
empty,346,8.96164650872,0.778135228487,0.0,none_u,False,,,4.55100530013,True,"[0.43223145395423557, 0.43209486061800928, 0.43159385282734553]",True,True,darker,,0.499912799802,down,up,"(1, 1)","(0, 0)","(0, 0)","(0, 0)","(1, 1)","(0, 0)","(0, 0)","(0, 0)"
empty,347,9.31090324177,0.684505903881,-0.08,none_l,True,4.12480490003,right,4.52402020013,True,"[0.014815760336482464, 0.014716136938872193, 0.014350730399182998]",False,False,darker,True,0.502520799637,right,up,"(0, 1)","(0, 0)","(0, 0)","(1, 0)","(0, 1)","(0, 0)","(0, 0)","(1, 0)"
interactor,348,9.10915234619,0.704693024939,0.08,45_top_r,True,4.12368750013,,4.52547240024,True,"[0.44849513057825652, 0.44835709679037761, 0.44785080559774926]",False,True,lighter,True,0.375459800009,left,down,"(0, 0)","(1, 0)","(0, 1)","(0, 0)","(0, 0)","(0, 0)","(1, 1)","(0, 0)"
empty,349,9.56917977829,0.790523959012,0.16,none_r,False,,,4.5490040998,True,"[0.87054422569587908, 0.87036881159533208, 0.86972541394948388]",True,True,lighter,True,0.451091400348,left,right,"(0, 0)","(1, 1)","(0, 0)","(0, 0)","(0, 0)","(1, 1)","(0, 0)","(0, 0)"
interactor,350,9.24194632736,0.803391122424,-0.08,135_top_u,False,,,4.55034010019,True,"[0.29782015286928032, 0.29769546415865, 0.29723812109082992]",True,False,darker,True,0.450816099998,down,up,"(1, 1)","(0, 0)","(0, 0)","(0, 0)","(0, 1)","(1, 0)","(0, 0)","(0, 0)"
interactor,351,9.38475893518,0.750455333896,0.16,45_top_r,False,,,4.55208829977,True,"[0.76673958799791619, 0.76657336773253837, 0.76596369195901981]",True,False,lighter,True,0.375092400238,left,right,"(0, 0)","(1, 1)","(0, 0)","(0, 0)","(0, 0)","(0, 1)","(1, 0)","(0, 0)"
empty,352,9.28269100757,0.773456046998,0.16,none_u,False,,,4.55044150027,True,"[0.82619034976267924, 0.82601886402442481, 0.82538987513501261]",True,True,lighter,True,0.525567699689,down,up,"(1, 1)","(0, 0)","(0, 0)","(0, 0)","(1, 1)","(0, 0)","(0, 0)","(0, 0)"
interactor,353,9.38011083756,0.729645484674,-0.08,135_top_u,True,4.12476069992,,4.52484949958,True,"[0.1207681237679934, 0.12065911631407666, 0.1202592901939914]",False,True,darker,True,0.4501678003,down,right,"(1, 0)","(0, 1)","(0, 0)","(0, 0)","(0, 0)","(1, 1)","(0, 0)","(0, 0)"
interactor,354,10.0785010774,0.722619445928,0.16,135_bottom_d,True,4.12498320034,,4.54993900005,True,"[0.69529248351040285, 0.69513259121761406, 0.69454612568006668]",False,True,lighter,True,0.450229400303,up,left,"(0, 0)","(0, 0)","(1, 0)","(0, 1)","(0, 0)","(0, 0)","(0, 0)","(1, 1)"
interactor,355,9.14038920518,0.676354191715,0.08,135_top_u,False,,,4.54907880025,True,"[0.37846021889720216, 0.3783283880059205, 0.37784484828569975]",True,False,darker,False,0.752595199738,down,up,"(1, 1)","(0, 0)","(0, 0)","(0, 0)","(0, 1)","(1, 0)","(0, 0)","(0, 0)"
interactor,356,9.44028031924,0.816623537376,-0.08,135_bottom_d,False,,,4.54964110022,True,"[0.33008358196108789, 0.32995603572255194, 0.32948821158894415]",True,False,lighter,False,0.800712800119,up,down,"(0, 0)","(0, 0)","(1, 1)","(0, 0)","(0, 0)","(0, 0)","(0, 1)","(1, 0)"
interactor,357,9.11496122526,0.703835716151,0.08,45_top_r,False,,,4.5488948999,True,"[0.44636702281924556, 0.44622917751496693, 0.44572357765732917]",True,False,darker,False,0.577633200213,left,right,"(0, 0)","(1, 1)","(0, 0)","(0, 0)","(0, 0)","(0, 1)","(1, 0)","(0, 0)"
empty,358,10.0147073834,0.736316742419,-0.16,none_l,False,,,4.54942019982,True,"[-0.050362657420900514, -0.050456508054955385, -0.050800740798068511]",True,True,darker,True,0.476345499977,right,left,"(0, 0)","(0, 0)","(0, 0)","(1, 1)","(0, 0)","(0, 0)","(0, 0)","(1, 1)"
interactor,359,9.37978142618,0.910699262442,0.0,45_top_u,True,4.12478379998,,4.5245379,True,"[0.76736812746513827, 0.76720185153087539, 0.76659197157064574]",False,True,darker,,0.951393400319,down,left,"(1, 0)","(0, 0)","(0, 0)","(0, 1)","(0, 0)","(0, 0)","(0, 0)","(1, 1)"
interactor,360,9.42831223353,0.867937616995,0.0,45_bottom_d,False,,,4.55016060034,True,"[0.65783345616268374, 0.65767688156485038, 0.65710258493002138]",True,False,lighter,,0.52505409997,up,down,"(0, 0)","(0, 0)","(1, 1)","(0, 0)","(0, 0)","(1, 0)","(0, 1)","(0, 0)"
interactor,361,9.65631272321,0.751840426152,0.16,135_top_u,True,4.1245976002,,4.52422499983,True,"[0.77030916399661797, 0.77014262757876351, 0.76953179219630252]",False,True,lighter,True,0.501466600224,down,right,"(1, 0)","(0, 1)","(0, 0)","(0, 0)","(0, 0)","(1, 1)","(0, 0)","(0, 0)"
interactor,362,9.71180923761,0.723514208215,0.0,135_bottom_r,True,4.12549089966,,4.52537459973,True,"[0.29811958691030838, 0.29799487167921357, 0.29753743133754562]",False,True,darker,,0.500818199944,left,up,"(0, 1)","(1, 0)","(0, 0)","(0, 0)","(1, 1)","(0, 0)","(0, 0)","(0, 0)"
empty,363,9.45745938334,0.7827798868,0.08,none_r,True,4.12516069971,left,4.52547159977,True,"[0.64471150945748223, 0.644556097052571, 0.64398606320041996]",False,False,darker,False,0.599849800114,left,up,"(0, 1)","(1, 0)","(0, 0)","(0, 0)","(0, 1)","(1, 0)","(0, 0)","(0, 0)"
empty,364,9.32980746393,0.734451109293,0.08,none_l,True,4.12470899988,right,4.52574090008,True,"[0.52272101760156553, 0.52257640972811825, 0.52204600558696179]",False,False,darker,False,0.550114999991,right,up,"(0, 1)","(0, 0)","(0, 0)","(1, 0)","(0, 1)","(0, 0)","(0, 0)","(1, 0)"
interactor,365,9.33056326936,0.813466129592,-0.16,45_bottom_d,True,4.12520000013,,4.52496200008,True,"[0.1298226386711272, 0.12971282927117622, 0.12931006171030024]",False,True,darker,True,0.549278500024,up,right,"(0, 0)","(0, 1)","(1, 0)","(0, 0)","(0, 0)","(1, 1)","(0, 0)","(0, 0)"
