,trial_type,trial,ball_speed,ball_start_color,ball_color_change,interactor,bounce,bounce_moment,random_bounce_direction,target_onset,ball_change,target_color,abs_congruent,sim_congruent,response,accuracy,rt,start_pos,end_pos,abs_rfup,abs_rfright,abs_rfdown,abs_rfleft,sim_rfup,sim_rfright,sim_rfdown,sim_rfleft
0,empty,1,9.41499063327,0.737006327809,-0.08,none_r,False,,,4.56184449978,True,"[0.13822434849460508, 0.13811379496667509, 0.13770829803462381]",True,True,,False,,left,right,"(0, 0)","(1, 1)","(0, 0)","(0, 0)","(0, 0)","(1, 1)","(0, 0)","(0, 0)"
1,interactor,2,9.94745113572,0.8355481013,0.08,135_top_u,True,4.12336990004,,4.54836219968,True,"[0.7798710281030008, 0.77970364480388454, 0.77908970316367143]",False,True,m,,,down,right,"(1, 0)","(0, 1)","(0, 0)","(0, 0)","(0, 0)","(1, 1)","(0, 0)","(0, 0)"
2,interactor,3,10.034920512,0.685668463855,0.16,135_top_l,False,,,4.55057050008,True,"[0.60131863184999124, 0.60116706269306008, 0.60061112540837658]",True,False,x,,,right,left,"(0, 0)","(0, 0)","(0, 0)","(1, 1)","(0, 0)","(0, 0)","(1, 0)","(0, 1)"
3,interactor,4,9.52313804451,0.817696135124,0.08,45_bottom_d,True,4.12657089997,,4.52651820006,True,"[0.7339213958776678, 0.73375808227479933, 0.73315906778684004]",False,True,m,,,up,right,"(0, 0)","(0, 1)","(1, 0)","(0, 0)","(0, 0)","(1, 1)","(0, 0)","(0, 0)"
4,empty,5,9.97375608377,0.907161852178,-0.08,none_r,False,,,4.55006500008,True,"[0.55463426777689628, 0.55448683339041183, 0.55394606194224605]",True,True,x,,,left,right,"(0, 0)","(1, 1)","(0, 0)","(0, 0)","(0, 0)","(1, 1)","(0, 0)","(0, 0)"
5,empty,6,9.1972743054,0.843995993774,-0.16,none_r,False,,,4.55086149974,True,"[0.20264611321592652, 0.20252985394016787, 0.20210342901710066]",True,True,darker,True,0.724073700141,left,right,"(0, 0)","(1, 1)","(0, 0)","(0, 0)","(0, 0)","(1, 1)","(0, 0)","(0, 0)"
6,interactor,7,10.1313456918,0.668529113775,0.16,45_top_r,True,4.12415130017,,4.54933850002,True,"[0.55807443576272719, 0.55792669668525541, 0.55738480766750742]",False,True,lighter,True,0.826140900142,left,down,"(0, 0)","(1, 0)","(0, 1)","(0, 0)","(0, 0)","(0, 0)","(1, 1)","(0, 0)"
7,empty,8,9.73052680331,0.876531809251,-0.08,none_l,False,,,4.54965359997,True,"[0.47794192183191142, 0.47780127998189648, 0.47728542273367403]",True,True,darker,True,0.550779100042,right,left,"(0, 0)","(0, 0)","(0, 0)","(1, 1)","(0, 0)","(0, 0)","(0, 0)","(1, 1)"
8,interactor,9,9.19221965192,0.541408100631,0.0,135_bottom_r,True,4.1258450998,,4.52578910021,True,"[-0.12997614692211334, -0.13006294629799819, -0.13038131588135038]",False,True,lighter,,0.775238099974,left,up,"(0, 1)","(1, 0)","(0, 0)","(0, 0)","(1, 1)","(0, 0)","(0, 0)","(0, 0)"
9,interactor,10,9.44292209157,0.776330786779,0.0,135_top_u,True,4.12390999962,,4.52585339965,True,"[0.42776234060422835, 0.42762614309127622, 0.42712658713237261]",False,True,,False,,down,right,"(1, 0)","(0, 1)","(0, 0)","(0, 0)","(0, 0)","(1, 1)","(0, 0)","(0, 0)"
10,interactor,11,9.45714966925,0.721479089944,0.0,45_bottom_l,False,,,4.54971309984,True,"[0.29317033786440305, 0.29304606098154529, 0.29259022844804616]",True,False,,False,,right,left,"(0, 0)","(0, 0)","(0, 0)","(1, 1)","(1, 0)","(0, 0)","(0, 0)","(0, 1)"
11,interactor,12,9.70286193156,0.761566573966,-0.08,45_top_r,True,4.12454649992,,4.52422640007,True,"[0.19682087554382921, 0.19670513220142594, 0.19628059965932954]",False,True,x,,,left,down,"(0, 0)","(1, 0)","(0, 1)","(0, 0)","(0, 0)","(0, 0)","(1, 1)","(0, 0)"
12,empty,13,9.70135283153,0.7275537324,0.08,none_u,False,,,4.55001010001,True,"[0.5054554852964579, 0.50531240660765575, 0.5047876113303138]",True,True,,False,,down,up,"(1, 1)","(0, 0)","(0, 0)","(0, 0)","(1, 1)","(0, 0)","(0, 0)","(0, 0)"
13,empty,14,9.77316889617,0.881327212993,0.16,none_u,True,4.1236200002,left,4.52286450006,True,"[1.0, 1.0, 1.0]",False,False,m,,,down,left,"(1, 0)","(0, 0)","(0, 0)","(0, 1)","(1, 0)","(0, 0)","(0, 0)","(0, 1)"
14,interactor,15,9.6014710131,0.835880331391,0.0,135_top_l,False,,,4.55024569994,True,"[0.57659513080845204, 0.57644575137828258, 0.57589784574578995]",True,False,,False,,right,left,"(0, 0)","(0, 0)","(0, 0)","(1, 1)","(0, 0)","(0, 0)","(1, 0)","(0, 1)"
15,interactor,16,9.65435125456,0.603249524242,-0.16,135_bottom_d,False,,,4.54963739961,True,"[-0.34679526332072852, -0.34686285932322214, -0.34711079326203975]",True,False,x,,,up,down,"(0, 0)","(0, 0)","(1, 1)","(0, 0)","(0, 0)","(0, 0)","(0, 1)","(1, 0)"
16,empty,17,9.7652130003,0.908755486171,0.08,none_l,True,4.12561089965,right,4.5241446998,True,"[0.97061556060490184, 0.97043128332272244, 0.96975537660161026]",False,False,lighter,True,0.675958100241,right,up,"(0, 1)","(0, 0)","(0, 0)","(1, 0)","(0, 1)","(0, 0)","(0, 0)","(1, 0)"
17,interactor,18,9.55368932443,0.807637189984,-0.08,45_top_u,False,,,4.55177740008,True,"[0.30815702107156029, 0.30803141683861313, 0.30757071574597283]",True,False,darker,True,0.625195899978,down,up,"(1, 1)","(0, 0)","(0, 0)","(0, 0)","(0, 1)","(0, 0)","(0, 0)","(1, 0)"
18,interactor,19,9.60577746954,0.82143200568,0.08,45_bottom_d,True,4.12451320002,,4.52532349993,True,"[0.74351850668337383, 0.74335434307749204, 0.74275221088157228]",False,True,lighter,True,0.775109500159,up,right,"(0, 0)","(0, 1)","(1, 0)","(0, 0)","(0, 0)","(1, 1)","(0, 0)","(0, 0)"
19,interactor,20,9.78135144156,0.675965085901,-0.08,135_top_u,False,,,4.55026070029,True,"[-0.0050141120932701844, -0.0051119791861261588, -0.0054709438129959542]",True,False,darker,True,0.474110199604,down,up,"(1, 1)","(0, 0)","(0, 0)","(0, 0)","(0, 1)","(1, 0)","(0, 0)","(0, 0)"
20,interactor,21,9.67142691467,0.65540096136,-0.08,45_bottom_l,False,,,4.55202159984,True,"[-0.052466975478991595, -0.052560639736464965, -0.052904188872887281]",True,False,darker,True,0.70008750027,right,left,"(0, 0)","(0, 0)","(0, 0)","(1, 1)","(1, 0)","(0, 0)","(0, 0)","(0, 1)"
21,interactor,22,9.37271202106,0.858827586587,-0.08,135_bottom_d,True,4.12598469993,,4.52487189975,True,"[0.43394692565749793, 0.43381018038428354, 0.43330861530717257]",False,True,lighter,False,0.975927200168,up,left,"(0, 0)","(0, 0)","(1, 0)","(0, 1)","(0, 0)","(0, 0)","(0, 0)","(1, 1)"
22,interactor,23,9.24789416679,0.673532747399,0.08,135_bottom_r,False,,,4.54934159992,True,"[0.37152291425078876, 0.37139169778711612, 0.37091041171284811]",True,False,,False,,left,right,"(0, 0)","(1, 1)","(0, 0)","(0, 0)","(1, 0)","(0, 1)","(0, 0)","(0, 0)"
23,interactor,24,10.1693714615,0.627671520251,0.0,45_bottom_d,False,,,4.5492420001,True,"[0.068952313099714724, 0.068847894901471918, 0.068464901614588847]",True,False,m,,,up,down,"(0, 0)","(0, 0)","(1, 1)","(0, 0)","(0, 0)","(1, 0)","(0, 1)","(0, 0)"
24,empty,25,9.33615274411,0.834636032606,0.0,none_u,False,,,4.55151990009,True,"[0.57345736463637875, 0.57330826311388061, 0.5727613768130142]",True,True,,False,,down,up,"(1, 1)","(0, 0)","(0, 0)","(0, 0)","(1, 1)","(0, 0)","(0, 0)","(0, 0)"
25,empty,26,9.9444165122,0.737789604618,-0.16,none_d,False,,,4.55057819979,True,"[-0.046976502881312165, -0.047070653422454645, -0.047415986188395709]",True,True,m,,,up,down,"(0, 0)","(0, 0)","(1, 1)","(0, 0)","(0, 0)","(0, 0)","(1, 1)","(0, 0)"
26,empty,27,9.49972908143,0.775904631628,0.0,none_l,True,4.12471010024,left,4.52527499991,True,"[0.42670724852675423, 0.42657114446186828, 0.42607193125913767]",False,False,lighter,,0.976245700382,right,down,"(0, 0)","(0, 0)","(0, 1)","(1, 0)","(0, 0)","(0, 0)","(0, 1)","(1, 0)"
27,empty,28,9.47163179558,0.788173490703,-0.16,none_d,True,4.12478510011,left,4.52359839994,True,"[0.070130991664731912, 0.070026469072535846, 0.069643092881295665]",False,False,darker,True,0.650801300071,up,right,"(0, 0)","(0, 1)","(1, 0)","(0, 0)","(0, 0)","(0, 1)","(1, 0)","(0, 0)"
28,empty,29,9.30912986213,0.713831235132,-0.08,none_d,True,4.12398809986,right,4.52353439992,True,"[0.083432213044803083, 0.083326512381572071, 0.082938815168659419]",False,False,darker,True,0.676030700095,up,left,"(0, 0)","(0, 0)","(1, 0)","(0, 1)","(0, 0)","(0, 0)","(1, 0)","(0, 1)"
29,interactor,30,9.86156952393,0.859584321856,0.0,135_top_u,False,,,4.54878270021,True,"[0.6365913964571468, 0.63643670323956814, 0.63586930727932645]",True,False,darker,,0.601923800074,down,up,"(1, 1)","(0, 0)","(0, 0)","(0, 0)","(0, 1)","(1, 0)","(0, 0)","(0, 0)"
30,interactor,31,9.26838331619,0.669592088215,0.0,45_top_u,False,,,4.55201860005,True,"[0.16818466040541402, 0.1680714533335248, 0.16765622352406395]",True,False,darker,,0.650984699838,down,up,"(1, 1)","(0, 0)","(0, 0)","(0, 0)","(0, 1)","(0, 0)","(0, 0)","(1, 0)"
31,empty,32,9.46716143719,1.02114631772,0.16,none_u,False,,,4.55058200005,True,"[1.0, 1.0, 1.0]",True,True,,False,,down,up,"(1, 1)","(0, 0)","(0, 0)","(0, 0)","(1, 1)","(0, 0)","(0, 0)","(0, 0)"
32,interactor,33,9.32929338247,0.642142359888,0.0,45_top_r,True,4.12562639965,,4.52566569997,True,"[0.10302530022477896, 0.10291786422854354, 0.10252380202463285]",False,True,x,,,left,down,"(0, 0)","(1, 0)","(0, 1)","(0, 0)","(0, 0)","(0, 0)","(1, 1)","(0, 0)"
33,empty,34,9.34282340023,0.718984750516,0.0,none_r,False,,,4.5488926,True,"[0.28710905817151344, 0.2869853181279316, 0.28653145465578156]",True,True,darker,,0.575763800181,left,right,"(0, 0)","(1, 1)","(0, 0)","(0, 0)","(0, 0)","(1, 1)","(0, 0)","(0, 0)"
34,empty,35,9.27918452422,0.851282415858,0.08,none_u,True,4.12533570034,left,4.52474260004,True,"[0.8205562629501808, 0.82038527621531054, 0.81975811760978945]",False,False,lighter,True,0.749949300196,down,left,"(1, 0)","(0, 0)","(0, 0)","(0, 1)","(1, 0)","(0, 0)","(0, 0)","(0, 1)"
35,empty,36,9.64347988909,0.770520579976,0.08,none_u,True,4.12453270005,right,4.52541479981,True,"[0.61360102123925131, 0.61344836424784499, 0.61288843691824568]",False,False,,False,,down,right,"(1, 0)","(0, 1)","(0, 0)","(0, 0)","(1, 0)","(0, 1)","(0, 0)","(0, 0)"
36,empty,37,9.30008443098,0.716670988146,0.0,none_l,False,,,4.54907920025,True,"[0.28149128086031472, 0.28136803837560542, 0.28091599988905802]",True,True,x,,,right,left,"(0, 0)","(0, 0)","(0, 0)","(1, 1)","(0, 0)","(0, 0)","(0, 0)","(1, 1)"
37,interactor,38,9.15059323852,0.623852917375,0.16,135_top_l,True,4.12405630015,,4.5240933001,True,"[0.44640971590169465, 0.44627186681614694, 0.44576625308927653]",False,True,lighter,True,0.801821399946,right,down,"(0, 0)","(0, 0)","(0, 1)","(1, 0)","(0, 0)","(0, 0)","(1, 1)","(0, 0)"
38,empty,39,9.28022011673,0.894896936971,0.16,none_r,True,4.12590659969,right,4.52563859988,True,"[1.0, 1.0, 1.0]",False,False,lighter,True,0.600674199872,left,down,"(0, 0)","(1, 0)","(0, 1)","(0, 0)","(0, 0)","(1, 0)","(0, 1)","(0, 0)"
39,interactor,40,9.81621670287,0.715717074525,-0.16,45_bottom_l,True,4.12713370007,,4.55193830002,True,"[-0.097493347429166932, -0.097583023762295551, -0.097911945675887568]",False,True,darker,True,0.524639599957,right,up,"(0, 1)","(0, 0)","(0, 0)","(1, 0)","(1, 1)","(0, 0)","(0, 0)","(0, 0)"
40,empty,41,8.84877107829,0.769398870205,-0.16,none_d,True,4.1253014002,left,4.5264913002,True,"[0.026207797278888778, 0.026107164904105584, 0.025738057558519101]",False,False,darker,True,0.74995499989,up,right,"(0, 0)","(0, 1)","(1, 0)","(0, 0)","(0, 0)","(0, 1)","(1, 0)","(0, 0)"
41,empty,42,9.75613079567,0.884169676091,-0.08,none_u,True,4.12531640008,left,4.52572020004,True,"[0.49699795868373209, 0.49685562906652669, 0.49633358129294725]",False,False,darker,True,0.751235399861,down,left,"(1, 0)","(0, 0)","(0, 0)","(0, 1)","(1, 0)","(0, 0)","(0, 0)","(0, 1)"
42,interactor,43,9.10588489714,0.812014879766,0.08,45_top_u,True,4.12399969995,,4.52401569998,True,"[0.71934590719151692, 0.71918388451980042, 0.71858960501073521]",False,True,lighter,True,0.675737899728,down,left,"(1, 0)","(0, 0)","(0, 0)","(0, 1)","(0, 0)","(0, 0)","(0, 0)","(1, 1)"
43,empty,44,9.15073202221,0.796884827722,0.08,none_l,True,4.12509439979,left,4.5248937998,True,"[0.68064256631390796, 0.68048397154430007, 0.67990226516442043]",False,False,lighter,True,0.751248400193,right,down,"(0, 0)","(0, 0)","(0, 1)","(1, 0)","(0, 0)","(0, 0)","(0, 1)","(1, 0)"
44,interactor,45,9.50900354459,0.842740235552,0.08,45_top_u,True,4.12441010028,,4.52519770013,True,"[0.79844668621731474, 0.79827765769749726, 0.79765768158729022]",False,True,lighter,True,0.750730900094,down,left,"(1, 0)","(0, 0)","(0, 0)","(0, 1)","(0, 0)","(0, 0)","(0, 0)","(1, 1)"
45,empty,46,9.31175803674,0.674457493489,0.16,none_l,True,4.12539369985,left,4.52584799984,True,"[0.57300723586356939, 0.57285817420836427, 0.57231143413588703]",False,False,m,,,right,down,"(0, 0)","(0, 0)","(0, 1)","(1, 0)","(0, 0)","(0, 0)","(0, 1)","(1, 0)"
46,empty,47,9.14661512667,0.804032249722,-0.16,none_r,False,,,4.5506643001,True,"[0.10748951074078739, 0.10738167935551335, 0.10698616691257379]",True,True,x,,,left,right,"(0, 0)","(1, 1)","(0, 0)","(0, 0)","(0, 0)","(1, 1)","(0, 0)","(0, 0)"
47,empty,48,9.581139324,0.696072584457,0.08,none_u,False,,,4.54945269972,True,"[0.42712305560871178, 0.42698691471635963, 0.42648756643494967]",True,True,darker,False,0.651344900019,down,up,"(1, 1)","(0, 0)","(0, 0)","(0, 0)","(1, 1)","(0, 0)","(0, 0)","(0, 0)"
48,empty,49,9.19555862544,0.627313416561,-0.08,none_d,True,4.12560670031,right,4.52690660022,True,"[-0.11659617620841289, -0.11668416063005205, -0.11700687681750777]",False,False,darker,True,0.974950899836,up,left,"(0, 0)","(0, 0)","(1, 0)","(0, 1)","(0, 0)","(0, 0)","(1, 0)","(0, 1)"
49,interactor,50,9.52488569154,0.606951837846,0.0,45_bottom_d,True,4.12515830016,,4.52519570012,True,"[0.020507630217937001, 0.020407502699175017, 0.020040247104244235]",False,True,,False,,up,right,"(0, 0)","(0, 1)","(1, 0)","(0, 0)","(0, 0)","(1, 1)","(0, 0)","(0, 0)"
50,empty,51,9.53454899089,0.703445556023,0.0,none_l,True,4.12547070021,right,4.52646820014,True,"[0.24946747722789997, 0.24934707104779652, 0.24890543578254598]",False,False,,False,,right,up,"(0, 1)","(0, 0)","(0, 0)","(1, 0)","(0, 1)","(0, 0)","(0, 0)","(1, 0)"
51,interactor,52,9.43844458431,0.720445462578,0.08,45_top_r,False,,,4.55042720027,True,"[0.48770058164823538, 0.48755907548703048, 0.48704004805019485]",True,False,x,,,left,right,"(0, 0)","(1, 1)","(0, 0)","(0, 0)","(0, 0)","(0, 1)","(1, 0)","(0, 0)"
52,empty,53,9.27247712294,0.639520372834,0.08,none_d,True,4.12492199987,right,4.5249047,True,"[0.28841018532225826, 0.28828633003961834, 0.28783204388458428]",False,False,darker,False,0.975368499756,up,left,"(0, 0)","(0, 0)","(1, 0)","(0, 1)","(0, 0)","(0, 0)","(1, 0)","(0, 1)"
53,empty,54,9.86681487534,0.729875265767,0.08,none_u,False,,,4.55073039979,True,"[0.51126265385311243, 0.51111906083131275, 0.51059237904291477]",True,True,,False,,down,up,"(1, 1)","(0, 0)","(0, 0)","(0, 0)","(1, 1)","(0, 0)","(0, 0)","(0, 0)"
54,empty,55,9.61917529168,0.755799401928,0.16,none_l,True,4.12403259985,left,4.52488949988,True,"[0.78051946763884406, 0.78035202690832217, 0.77973787461668009]",False,False,x,,,right,down,"(0, 0)","(0, 0)","(0, 1)","(1, 0)","(0, 0)","(0, 0)","(0, 1)","(1, 0)"
55,empty,56,8.9206110546,0.742259444326,0.0,none_l,False,,,4.55042329989,True,"[0.34386932862842223, 0.34374056140510856, 0.34326825884742029]",True,True,darker,,0.72422809992,right,left,"(0, 0)","(0, 0)","(0, 0)","(1, 1)","(0, 0)","(0, 0)","(0, 0)","(1, 1)"
56,empty,57,9.09623137989,0.843483861691,0.0,none_r,False,,,4.55009210017,True,"[0.59579438897697723, 0.59564330909470176, 0.59508916641011567]",True,True,lighter,,0.87382009998,left,right,"(0, 0)","(1, 1)","(0, 0)","(0, 0)","(0, 0)","(1, 1)","(0, 0)","(0, 0)"
57,empty,58,9.65081102054,0.886157809687,-0.08,none_l,True,4.12695829989,left,4.5264603002,True,"[0.50196568107579109, 0.50182291147418967, 0.50129924989120833]",False,False,,False,,right,down,"(0, 0)","(0, 0)","(0, 1)","(1, 0)","(0, 0)","(0, 0)","(0, 1)","(1, 0)"
58,empty,59,9.5909792315,0.650286390032,0.0,none_d,False,,,4.5482504,True,"[0.12228607308412265, 0.12217693118750539, 0.1217766119479009]",True,True,m,,,up,down,"(0, 0)","(0, 0)","(1, 1)","(0, 0)","(0, 0)","(0, 0)","(1, 1)","(0, 0)"
59,interactor,60,9.60943441706,0.792798318321,0.0,135_top_l,True,4.12603090005,,4.52683930006,True,"[0.46864365985526257, 0.46850384153962676, 0.46799100491562928]",False,True,lighter,,0.923933600076,right,down,"(0, 0)","(0, 0)","(0, 1)","(1, 0)","(0, 0)","(0, 0)","(1, 1)","(0, 0)"
60,empty,61,9.73366936267,0.743740294484,0.08,none_r,True,4.12587530026,left,4.52636989998,True,"[0.54603151652257953, 0.54588484407003834, 0.54534686730316961]",False,False,lighter,True,0.850895300042,left,up,"(0, 1)","(1, 0)","(0, 0)","(0, 0)","(0, 1)","(1, 0)","(0, 0)","(0, 0)"
61,interactor,62,9.74088071956,0.769692844314,0.08,135_top_l,True,4.12516920036,,4.52603390021,True,"[0.61150449285124875, 0.6113520215465007, 0.61079277529304865]",False,True,lighter,True,0.799557999708,right,down,"(0, 0)","(0, 0)","(0, 1)","(1, 0)","(0, 0)","(0, 0)","(1, 1)","(0, 0)"
62,empty,63,9.64678068144,0.761857684625,0.0,none_u,False,,,4.54966140026,True,"[0.39201069493618412, 0.39187766389772261, 0.39138972218320678]",True,True,darker,,0.676121499855,down,up,"(1, 1)","(0, 0)","(0, 0)","(0, 0)","(1, 1)","(0, 0)","(0, 0)","(0, 0)"
63,empty,64,10.0630465905,0.678007469546,0.16,none_u,False,,,4.55072160019,True,"[0.58196186993968624, 0.58181201518475389, 0.58126236611867377]",True,True,lighter,True,0.899580200203,down,up,"(1, 1)","(0, 0)","(0, 0)","(0, 0)","(1, 1)","(0, 0)","(0, 0)","(0, 0)"
64,empty,65,9.3405382137,0.868653701411,-0.08,none_u,False,,,4.55146949971,True,"[0.45833430402032871, 0.45819539879027782, 0.4576859112534597]",True,True,darker,True,0.775571300182,down,up,"(1, 1)","(0, 0)","(0, 0)","(0, 0)","(1, 1)","(0, 0)","(0, 0)","(0, 0)"
65,interactor,66,9.26148072168,0.793663415464,-0.08,135_bottom_r,False,,,4.54945649998,True,"[0.27419571989278535, 0.27407312356596103, 0.27362345510816133]",True,False,darker,True,0.576608700212,left,right,"(0, 0)","(1, 1)","(0, 0)","(0, 0)","(1, 0)","(0, 1)","(0, 0)","(0, 0)"
66,empty,67,9.32448580503,0.903117890128,-0.16,none_l,True,4.12626729999,left,4.52643850027,True,"[0.34597143795063912, 0.34584248454636946, 0.3453694990995182]",False,False,darker,True,0.825305199716,right,down,"(0, 0)","(0, 0)","(0, 1)","(1, 0)","(0, 0)","(0, 0)","(0, 1)","(1, 0)"
67,interactor,68,9.08965507715,0.727483870751,-0.16,45_bottom_l,False,,,4.55187850026,True,"[-0.070624172449434641, -0.070716228548741378, -0.071053879156044109]",True,False,darker,True,0.575425900053,right,left,"(0, 0)","(0, 0)","(0, 0)","(1, 1)","(1, 0)","(0, 0)","(0, 0)","(0, 1)"
68,empty,69,9.48171601022,0.871547078319,-0.16,none_d,False,,,4.55105260015,True,"[0.26906665963970755, 0.26894451758675264, 0.26849651535041397]",True,True,darker,True,0.600803100038,up,down,"(0, 0)","(0, 0)","(1, 1)","(0, 0)","(0, 0)","(0, 0)","(1, 1)","(0, 0)"
69,interactor,70,9.37936774667,0.562909803581,-0.08,45_top_u,False,,,4.54941450013,True,"[-0.26050028584991347, -0.26057552488085178, -0.26085149252102968]",True,False,darker,True,0.526517400052,down,up,"(1, 1)","(0, 0)","(0, 0)","(0, 0)","(0, 1)","(0, 0)","(0, 0)","(1, 0)"
70,empty,71,10.2901315825,0.696233293097,0.08,none_d,True,4.12479420006,right,4.55087759998,True,"[0.42752094904353544, 0.4273847729103053, 0.42688529536962561]",False,False,lighter,True,0.823731900193,up,left,"(0, 0)","(0, 0)","(1, 0)","(0, 1)","(0, 0)","(0, 0)","(1, 0)","(0, 1)"
71,empty,72,9.41784437693,0.729466075614,0.16,none_d,False,,,4.54968879977,True,"[0.71281437671559367, 0.71265293253262207, 0.71206077485011243]",True,True,lighter,True,0.651595400181,up,down,"(0, 0)","(0, 0)","(1, 1)","(0, 0)","(0, 0)","(0, 0)","(1, 1)","(0, 0)"
72,empty,73,9.50410734571,0.760019185763,0.16,none_r,True,4.12670239992,left,4.52544339979,True,"[0.79141455700008434, 0.79124615130636, 0.79062845964672235]",False,False,x,,,left,up,"(0, 1)","(1, 0)","(0, 0)","(0, 0)","(0, 1)","(1, 0)","(0, 0)","(0, 0)"
73,interactor,74,9.17185516856,0.765057058282,-0.08,45_bottom_l,True,4.1243559001,,4.52436120017,True,"[0.20519194715977918, 0.20507546240298091, 0.20464821044280646]",False,True,darker,True,0.576437700074,right,up,"(0, 1)","(0, 0)","(0, 0)","(1, 0)","(1, 1)","(0, 0)","(0, 0)","(0, 0)"
74,interactor,75,9.12887972025,0.864300856751,-0.08,135_top_u,True,4.12346719997,,4.52350210026,True,"[0.44752157467112696, 0.44738362710976642, 0.44687765218555109]",False,True,darker,True,0.651779899839,down,right,"(1, 0)","(0, 1)","(0, 0)","(0, 0)","(0, 0)","(1, 1)","(0, 0)","(0, 0)"
75,interactor,76,9.17692130815,0.673508598446,-0.16,45_top_u,False,,,4.54956020042,True,"[-0.19269162323652311, -0.19277286798821691, -0.19307086388372319]",True,False,darker,True,0.625252199825,down,up,"(1, 1)","(0, 0)","(0, 0)","(0, 0)","(0, 1)","(0, 0)","(0, 0)","(1, 0)"
76,empty,77,9.84110801465,0.694458363656,0.0,none_l,False,,,4.5504856999,True,"[0.22779163252240564, 0.2276731461423025, 0.22723855247060687]",True,True,,False,,right,left,"(0, 0)","(0, 0)","(0, 0)","(1, 1)","(0, 0)","(0, 0)","(0, 0)","(1, 1)"
77,interactor,78,9.57418350922,0.621787960273,0.0,135_bottom_d,True,4.12351289997,,4.52431620006,True,"[0.055154709875558483, 0.055051513712211841, 0.054673002701118634]",False,True,m,,,up,left,"(0, 0)","(0, 0)","(1, 0)","(0, 1)","(0, 0)","(0, 0)","(0, 0)","(1, 1)"
78,empty,79,9.69247679236,0.67245002447,0.0,none_r,True,4.12466840027,right,4.52538680006,True,"[0.17500768969630887, 0.17489387831802228, 0.17447643198598861]",False,False,,False,,left,down,"(0, 0)","(1, 0)","(0, 1)","(0, 0)","(0, 0)","(1, 0)","(0, 1)","(0, 0)"
79,empty,80,9.85165421439,0.756773300677,0.08,none_u,True,4.12501419988,right,4.54888699995,True,"[0.57884766424017342, 0.57869808530619182, 0.57814944791790679]",False,False,m,,,down,right,"(1, 0)","(0, 1)","(0, 0)","(0, 0)","(1, 0)","(0, 1)","(0, 0)","(0, 0)"
80,empty,81,9.67398516508,0.756047883426,0.08,none_d,False,,,4.55144990003,True,"[0.57701773844231541, 0.5768683215823649, 0.57632027866197233]",True,True,lighter,True,0.72574299993,up,down,"(0, 0)","(0, 0)","(1, 1)","(0, 0)","(0, 0)","(0, 0)","(1, 1)","(0, 0)"
81,interactor,82,9.3115338975,0.699402422777,0.08,45_bottom_l,True,4.12399900006,,4.5249621002,True,"[0.43537150031743121, 0.4352346288715836, 0.43473260100855149]",False,True,,False,,right,up,"(0, 1)","(0, 0)","(0, 0)","(1, 0)","(1, 1)","(0, 0)","(0, 0)","(0, 0)"
82,empty,83,9.67528923665,0.670398079628,-0.08,none_d,False,,,4.5500229001,True,"[-0.017901326346416613, -0.017998052036286016, -0.018352830135429765]",True,True,m,,,up,down,"(0, 0)","(0, 0)","(1, 1)","(0, 0)","(0, 0)","(0, 0)","(1, 1)","(0, 0)"
83,interactor,84,9.57977539546,0.697193886907,-0.16,45_top_r,True,4.12488770019,,4.52472750004,True,"[-0.13950224124501698, -0.13958819690772062, -0.13990347185345653]",False,True,darker,True,0.651235399768,left,down,"(0, 0)","(1, 0)","(0, 1)","(0, 0)","(0, 0)","(0, 0)","(1, 1)","(0, 0)"
84,interactor,85,9.10318003654,0.779600753246,0.16,45_top_r,False,,,4.55077240011,True,"[0.84213525491774477, 0.84196235696098953, 0.8413281882253989]",True,False,lighter,True,0.675230300054,left,right,"(0, 0)","(1, 1)","(0, 0)","(0, 0)","(0, 0)","(0, 1)","(1, 0)","(0, 0)"
85,interactor,86,9.82005774862,0.851053387183,-0.16,45_top_u,False,,,4.55042319978,True,"[0.21959755986881646, 0.21947979922654959, 0.21904786747322391]",True,False,darker,True,0.601712999865,down,up,"(1, 1)","(0, 0)","(0, 0)","(0, 0)","(0, 1)","(0, 0)","(0, 0)","(1, 0)"
86,empty,87,9.25495352653,0.815972236771,-0.16,none_l,False,,,4.55056930007,True,"[0.13576903812354302, 0.13565870205910313, 0.13525400275675992]",True,True,darker,True,0.700299900025,right,left,"(0, 0)","(0, 0)","(0, 0)","(1, 1)","(0, 0)","(0, 0)","(0, 0)","(1, 1)"
87,empty,88,9.46354307193,0.786353524336,0.0,none_d,False,,,4.54891570006,True,"[0.45261866091482594, 0.45248026191148871, 0.45197263115285868]",True,True,lighter,,0.675391899887,up,down,"(0, 0)","(0, 0)","(1, 1)","(0, 0)","(0, 0)","(0, 0)","(1, 1)","(0, 0)"
88,interactor,89,9.76717823184,0.631804560137,0.0,135_top_l,True,4.12495320011,,4.52588489978,True,"[0.078664122594335639, 0.078558844234371428, 0.078172695978624862]",False,True,lighter,,0.850231999997,right,down,"(0, 0)","(0, 0)","(0, 1)","(1, 0)","(0, 0)","(0, 0)","(1, 1)","(0, 0)"
89,empty,90,9.71417351446,0.838566403806,0.08,none_u,False,,,4.54938089987,True,"[0.78766219598284981, 0.78749412263062291, 0.78687764995928777]",True,True,lighter,True,0.651078100316,down,up,"(1, 1)","(0, 0)","(0, 0)","(0, 0)","(1, 1)","(0, 0)","(0, 0)","(0, 0)"
90,empty,91,9.48174579083,0.83091996485,0.08,none_l,False,,,4.55126950005,True,"[0.76793685557637126, 0.76777052927063627, 0.76716046455395248]",True,True,lighter,True,0.55020050006,right,left,"(0, 0)","(0, 0)","(0, 0)","(1, 1)","(0, 0)","(0, 0)","(0, 0)","(1, 1)"
91,empty,92,9.7391488264,0.650149236688,0.16,none_d,False,,,4.54976149974,True,"[0.51194824955881102, 0.51180459581473436, 0.51127769130439105]",True,True,lighter,True,0.701321800239,up,down,"(0, 0)","(0, 0)","(1, 1)","(0, 0)","(0, 0)","(0, 0)","(1, 1)","(0, 0)"
92,empty,93,9.1974074621,0.752643855002,-0.08,none_d,False,,,4.55063029984,True,"[0.17547070309699397, 0.17535685071024232, 0.17493925396413124]",True,True,darker,True,0.824448400177,up,down,"(0, 0)","(0, 0)","(1, 1)","(0, 0)","(0, 0)","(0, 0)","(1, 1)","(0, 0)"
93,empty,94,9.59753290034,0.762191476148,-0.16,none_d,True,4.12572749984,right,4.52610940021,True,"[0.009435213816897825, 0.009336066966953771, 0.0089724083463056381]",False,False,darker,True,0.799010499846,up,left,"(0, 0)","(0, 0)","(1, 0)","(0, 1)","(0, 0)","(0, 0)","(1, 0)","(0, 1)"
94,interactor,95,9.40389823428,0.744336852437,0.0,45_top_u,True,4.12615519995,,4.5249361,True,"[0.34895740101793815, 0.34882818315099273, 0.34835422768712121]",False,True,lighter,,0.851449799724,down,left,"(1, 0)","(0, 0)","(0, 0)","(0, 1)","(0, 0)","(0, 0)","(0, 0)","(1, 1)"
95,interactor,96,9.69460799187,0.919509747961,0.0,45_top_u,True,4.12589909974,,4.52477250015,True,"[0.79009857167419462, 0.78993028253549569, 0.7893130183855539]",False,True,lighter,,0.625272899866,down,left,"(1, 0)","(0, 0)","(0, 0)","(0, 1)","(0, 0)","(0, 0)","(0, 0)","(1, 1)"
96,interactor,97,9.86055658297,0.715940247938,-0.08,135_top_l,False,,,4.55104160029,True,"[0.088398065310023588, 0.088291924828031387, 0.087902614413243985]",True,False,darker,True,0.674500499852,right,left,"(0, 0)","(0, 0)","(0, 0)","(1, 1)","(0, 0)","(0, 0)","(1, 0)","(0, 1)"
97,interactor,98,9.83443072677,0.728500411383,0.16,45_bottom_l,False,,,4.55091590015,True,"[0.71034100006050704, 0.71017977494113316, 0.70958842075732576]",True,False,lighter,True,0.699704699684,right,left,"(0, 0)","(0, 0)","(0, 0)","(1, 1)","(1, 0)","(0, 0)","(0, 0)","(0, 1)"
98,interactor,99,9.419281423,0.865729269451,-0.16,135_top_u,True,4.12640300021,,4.52615870023,True,"[0.254986548626708, 0.25486565362997959, 0.254422225444632]",False,True,darker,True,0.62514499994,down,right,"(1, 0)","(0, 1)","(0, 0)","(0, 0)","(0, 0)","(1, 1)","(0, 0)","(0, 0)"
99,empty,100,9.85942470251,0.873301826682,-0.16,none_u,True,4.12542960001,left,4.55090379994,True,"[0.27331911978447532, 0.27319660109692556, 0.27274721741057384]",False,False,darker,True,0.600262399763,down,left,"(1, 0)","(0, 0)","(0, 0)","(0, 1)","(1, 0)","(0, 0)","(0, 0)","(0, 1)"
100,empty,101,9.3321194774,0.69085802283,0.08,none_u,True,4.12751080003,left,4.52674859995,True,"[0.41422368318103309, 0.41408868476850125, 0.41359352696450968]",False,False,darker,False,0.650052200072,down,left,"(1, 0)","(0, 0)","(0, 0)","(0, 1)","(1, 0)","(0, 0)","(0, 0)","(0, 1)"
101,interactor,102,9.62219908941,0.689860308556,-0.16,135_top_u,True,4.12517239992,,4.5259870002,True,"[-0.15603499275246946, -0.15611948413192367, -0.15642938826429331]",False,True,darker,True,0.524624199606,down,right,"(1, 0)","(0, 1)","(0, 0)","(0, 0)","(0, 0)","(1, 1)","(0, 0)","(0, 0)"
102,empty,103,9.60045970884,0.747946168489,0.0,none_d,True,4.12608170044,right,4.5250210003,True,"[0.35780592549369294, 0.35767592392500425, 0.35719909393818972]",False,False,lighter,,0.775971299969,up,left,"(0, 0)","(0, 0)","(1, 0)","(0, 1)","(0, 0)","(0, 0)","(1, 0)","(0, 1)"
103,interactor,104,9.66528099327,0.67490768312,0.0,135_bottom_r,True,4.12529410003,,4.52565089986,True,"[0.18088089887256942, 0.18076656731215834, 0.18034721301517775]",False,True,darker,,0.625808900222,left,up,"(0, 1)","(1, 0)","(0, 0)","(0, 0)","(1, 1)","(0, 0)","(0, 0)","(0, 0)"
104,empty,105,9.60762163362,0.948011538791,0.08,none_l,False,,,4.55158020044,True,"[1.0, 1.0, 1.0]",True,True,lighter,True,0.625463999808,right,left,"(0, 0)","(0, 0)","(0, 0)","(1, 1)","(0, 0)","(0, 0)","(0, 0)","(1, 1)"
105,interactor,106,9.24415174716,0.859053099911,0.0,135_bottom_r,True,4.12462410005,,4.52430929989,True,"[0.63524226180871191, 0.63508768808214833, 0.63452073040045942]",False,True,,False,,left,up,"(0, 1)","(1, 0)","(0, 0)","(0, 0)","(1, 1)","(0, 0)","(0, 0)","(0, 0)"
106,empty,107,9.74473774039,0.856808119626,0.0,none_d,True,4.12591379974,right,4.52486300003,True,"[0.62954303065981998, 0.62938896170638614, 0.62882385547131303]",False,False,m,,,up,left,"(0, 0)","(0, 0)","(1, 0)","(0, 1)","(0, 0)","(0, 0)","(1, 0)","(0, 1)"
107,empty,108,9.30014855184,0.629870468376,0.08,none_r,True,4.12402709993,right,4.52399289981,True,"[0.26500600868452207, 0.26488422627788433, 0.26443754318061363]",False,False,x,,,left,down,"(0, 0)","(1, 0)","(0, 1)","(0, 0)","(0, 0)","(1, 0)","(0, 1)","(0, 0)"
108,interactor,109,9.41518991963,0.617636695179,-0.16,45_top_u,True,4.12446379988,,4.52441849979,True,"[-0.31570512520166216, -0.31577547481528034, -0.31603350866573632]",False,True,m,,,down,left,"(1, 0)","(0, 0)","(0, 0)","(0, 1)","(0, 0)","(0, 0)","(0, 0)","(1, 1)"
109,empty,110,9.09898493216,0.663666400567,-0.16,none_u,False,,,4.55015749997,True,"[-0.21461578331784437, -0.21469508627658462, -0.21498595991104741]",True,True,darker,True,0.574593899772,down,up,"(1, 1)","(0, 0)","(0, 0)","(0, 0)","(1, 1)","(0, 0)","(0, 0)","(0, 0)"
110,interactor,111,9.22909003282,0.681056927901,0.16,45_top_u,True,4.12450759998,,4.52554519987,True,"[0.58966155078277738, 0.58951101407761586, 0.58895886370080275]",False,True,lighter,True,0.69964750018,down,left,"(1, 0)","(0, 0)","(0, 0)","(0, 1)","(0, 0)","(0, 0)","(0, 0)","(1, 1)"
111,empty,112,9.45815386367,0.599207389883,-0.16,none_l,False,,,4.54955290025,True,"[-0.35548520899668068, -0.35555203534253843, -0.3557971462741657]",True,True,darker,True,0.576711699832,right,left,"(0, 0)","(0, 0)","(0, 0)","(1, 1)","(0, 0)","(0, 0)","(0, 0)","(1, 1)"
112,interactor,113,9.3289297957,0.787425884686,-0.08,45_bottom_l,True,4.12400049996,,4.52389919991,True,"[0.25908966682657009, 0.25896840842225965, 0.2585236473019763]",False,True,darker,True,0.67518609995,right,up,"(0, 1)","(0, 0)","(0, 0)","(1, 0)","(1, 1)","(0, 0)","(0, 0)","(0, 0)"
113,interactor,114,9.67159538867,0.669072861932,0.08,135_top_u,False,,,4.54977479996,True,"[0.36057029321504719, 0.36044004681007991, 0.35996231879349128]",True,False,darker,False,0.699323000386,down,up,"(1, 1)","(0, 0)","(0, 0)","(0, 0)","(0, 1)","(1, 0)","(0, 0)","(0, 0)"
114,interactor,115,9.36832324661,0.703459338923,-0.16,45_bottom_l,True,4.12476619985,,4.5246950998,True,"[-0.12533266820984412, -0.12541987885230454, -0.12573975691157624]",False,True,darker,True,0.500029799994,right,up,"(0, 1)","(0, 0)","(0, 0)","(1, 0)","(1, 1)","(0, 0)","(0, 0)","(0, 0)"
115,interactor,116,9.66249567124,0.705056284196,0.08,135_bottom_d,False,,,4.54887659987,True,"[0.44939702871218823, 0.44925891504442039, 0.44875233086205357]",True,False,lighter,True,0.701910399832,up,down,"(0, 0)","(0, 0)","(1, 1)","(0, 0)","(0, 0)","(0, 0)","(0, 1)","(1, 0)"
116,interactor,117,9.01082343719,0.699868777035,0.16,135_bottom_d,False,,,4.55042660004,True,"[0.63731390776944807, 0.63715915056002781, 0.63659151988547302]",True,False,lighter,True,0.674304099753,up,down,"(0, 0)","(0, 0)","(1, 1)","(0, 0)","(0, 0)","(0, 0)","(0, 1)","(1, 0)"
117,interactor,118,9.51654483891,0.862609650651,-0.08,45_bottom_d,True,4.12366819987,,4.52451119991,True,"[0.44332455705066898, 0.44318698121343303, 0.44268236972822739]",False,True,lighter,False,0.675293300301,up,right,"(0, 0)","(0, 1)","(1, 0)","(0, 0)","(0, 0)","(1, 1)","(0, 0)","(0, 0)"
118,empty,119,9.02956665264,0.613219905566,-0.16,none_u,False,,,4.55022390001,True,"[-0.32527601067963863, -0.32534551261298505, -0.32560043727501431]",True,True,darker,True,0.524594900198,down,up,"(1, 1)","(0, 0)","(0, 0)","(0, 0)","(1, 1)","(0, 0)","(0, 0)","(0, 0)"
119,empty,120,9.01032707756,0.68876913964,-0.16,none_l,False,,,4.55019309977,True,"[-0.15849004753413809, -0.15857432147273909, -0.15888342805843136]",True,True,darker,True,0.524595300201,right,left,"(0, 0)","(0, 0)","(0, 0)","(1, 1)","(0, 0)","(0, 0)","(0, 0)","(1, 1)"
120,empty,121,9.5703931111,0.747332004507,-0.08,none_r,True,4.12457629992,left,4.52612179983,True,"[0.16279409404332101, 0.16268136440654168, 0.16226788577115814]",False,False,space,,,left,up,"(0, 1)","(1, 0)","(0, 0)","(0, 0)","(0, 1)","(1, 0)","(0, 0)","(0, 0)"
121,empty,122,9.14941683492,0.839693513884,0.0,none_u,False,,,4.55149709992,True,"[0.58621815631328089, 0.58606792458486989, 0.58551689282579189]",True,True,darker,,0.750302300323,down,up,"(1, 1)","(0, 0)","(0, 0)","(0, 0)","(1, 1)","(0, 0)","(0, 0)","(0, 0)"
122,interactor,123,9.19174026566,0.725521178508,0.08,135_bottom_d,False,,,4.55111670028,True,"[0.50037460567445446, 0.50023197699223143, 0.49970883228443719]",True,False,lighter,True,0.724700700026,up,down,"(0, 0)","(0, 0)","(1, 1)","(0, 0)","(0, 0)","(0, 0)","(0, 1)","(1, 0)"
123,empty,124,9.2685891585,0.681798646887,0.16,none_u,True,4.12602360034,right,4.52541510016,True,"[0.59153539864691118, 0.59138469597759902, 0.59083193686441571]",False,False,lighter,True,0.700362700038,down,right,"(1, 0)","(0, 1)","(0, 0)","(0, 0)","(1, 0)","(0, 1)","(0, 0)","(0, 0)"
124,interactor,125,9.67622455828,0.730187015489,-0.16,135_top_l,False,,,4.55068930006,True,"[-0.064431806580528828, -0.064524411129232795, -0.06486407338241118]",True,False,darker,True,0.676298299804,right,left,"(0, 0)","(0, 0)","(0, 0)","(1, 1)","(0, 0)","(0, 0)","(1, 0)","(0, 1)"
125,empty,126,9.50623808284,0.680130569426,-0.08,none_l,False,,,4.54855850013,True,"[0.0046483979493272543, 0.0045496750611353498, 0.0041875714807737552]",True,True,darker,True,0.601599900052,right,left,"(0, 0)","(0, 0)","(0, 0)","(1, 1)","(0, 0)","(0, 0)","(0, 0)","(1, 1)"
126,interactor,127,10.0551040602,0.84607427558,-0.08,45_bottom_d,False,,,4.54980740044,True,"[0.40240919255628205, 0.40227524053707131, 0.40178392077686298]",True,False,lighter,False,0.750068199821,up,down,"(0, 0)","(0, 0)","(1, 1)","(0, 0)","(0, 0)","(1, 0)","(0, 1)","(0, 0)"
127,interactor,128,9.5644616694,0.927869140304,-0.08,45_bottom_l,True,4.12384869996,,4.52512490004,True,"[0.60688713035545439, 0.60673506800420607, 0.60617732174258432]",False,True,darker,True,0.599071799777,right,up,"(0, 1)","(0, 0)","(0, 0)","(1, 0)","(1, 1)","(0, 0)","(0, 0)","(0, 0)"
128,interactor,129,9.93572137419,0.695486315324,-0.08,135_top_l,True,4.12439169968,,4.54909610003,True,"[0.040412815419790471, 0.040310924925927694, 0.039937202952142981]",False,True,darker,True,0.551923699677,right,down,"(0, 0)","(0, 0)","(0, 1)","(1, 0)","(0, 0)","(0, 0)","(1, 1)","(0, 0)"
129,interactor,130,9.62904134314,0.649139951669,0.0,45_bottom_l,True,4.12372400006,,4.52458800003,True,"[0.1195710605445337, 0.11946215911287439, 0.11906272186956812]",False,True,darker,,0.574483099859,right,up,"(0, 1)","(0, 0)","(0, 0)","(1, 0)","(1, 1)","(0, 0)","(0, 0)","(0, 0)"
130,empty,131,9.50928674476,0.859198125436,0.0,none_u,True,4.12569320016,right,4.52538610017,True,"[0.63561055978812497, 0.63545595344191153, 0.6348888761153042]",False,False,lighter,,0.750993399881,down,right,"(1, 0)","(0, 1)","(0, 0)","(0, 0)","(1, 0)","(0, 1)","(0, 0)","(0, 0)"
131,empty,132,9.40596920112,0.619713416955,-0.08,none_d,False,,,4.55086369999,True,"[-0.13380916143767652, -0.13389562132869359, -0.13421274572272701]",True,True,darker,True,0.774193100166,up,down,"(0, 0)","(0, 0)","(1, 1)","(0, 0)","(0, 0)","(0, 0)","(1, 1)","(0, 0)"
132,empty,133,9.61746774916,0.896644654262,-0.16,none_r,False,,,4.54963909974,True,"[0.33013518598494063, 0.33000763517590759, 0.32953979427826696]",True,True,darker,True,0.550403499976,left,right,"(0, 0)","(1, 1)","(0, 0)","(0, 0)","(0, 0)","(1, 1)","(0, 0)","(0, 0)"
133,interactor,134,9.58524279562,0.803083819328,-0.16,45_top_r,False,,,4.55003160005,True,"[0.10524876227537527, 0.10514112935013697, 0.10474634483453582]",True,False,darker,True,0.475583399646,left,right,"(0, 0)","(1, 1)","(0, 0)","(0, 0)","(0, 0)","(0, 1)","(1, 0)","(0, 0)"
134,empty,135,9.34425295525,0.850411328433,0.08,none_d,False,,,4.54888540041,True,"[0.81829931249861776, 0.81812852565876915, 0.81750210024394865]",True,True,lighter,True,0.626868399791,up,down,"(0, 0)","(0, 0)","(1, 1)","(0, 0)","(0, 0)","(0, 0)","(1, 1)","(0, 0)"
135,interactor,136,9.12403312063,0.699157352771,0.08,45_top_r,False,,,4.55145320017,True,"[0.43476412904021267, 0.43462731138840871, 0.43412548083541247]",True,False,darker,False,0.524673399981,left,right,"(0, 0)","(1, 1)","(0, 0)","(0, 0)","(0, 0)","(0, 1)","(1, 0)","(0, 0)"
136,interactor,137,9.18313282553,0.687763055716,-0.16,135_top_l,False,,,4.55136410007,True,"[-0.16075254501655245, -0.16083661856883769, -0.16114499016182726]",True,False,darker,True,0.524404800031,right,left,"(0, 0)","(0, 0)","(0, 0)","(1, 1)","(0, 0)","(0, 0)","(1, 0)","(0, 1)"
137,interactor,138,9.48277718613,0.703945504711,-0.08,135_bottom_d,False,,,4.54965589987,True,"[0.060210618484753287, 0.06010697452647773, 0.059726821057894952]",True,False,lighter,False,0.775280599948,up,down,"(0, 0)","(0, 0)","(1, 1)","(0, 0)","(0, 0)","(0, 0)","(0, 1)","(1, 0)"
138,interactor,139,9.51713198675,0.895618184377,-0.16,45_top_r,False,,,4.5502692,True,"[0.32762719617811764, 0.32749986749832072, 0.32703284134377753]",True,False,darker,True,0.550185900182,left,right,"(0, 0)","(1, 1)","(0, 0)","(0, 0)","(0, 0)","(0, 1)","(1, 0)","(0, 0)"
139,empty,140,9.5021418751,0.844564745801,0.0,none_d,False,,,4.5510133002,True,"[0.59852719362196716, 0.5983758716989116, 0.59782084123810053]",True,True,lighter,,0.674879299942,up,down,"(0, 0)","(0, 0)","(1, 1)","(0, 0)","(0, 0)","(0, 0)","(1, 1)","(0, 0)"
140,empty,141,9.92766108792,0.748867847138,-0.08,none_r,False,,,4.55091030011,True,"[0.16645676393773656, 0.16634370990328051, 0.16592904141656395]",True,True,darker,True,0.50129329972,left,right,"(0, 0)","(1, 1)","(0, 0)","(0, 0)","(0, 0)","(1, 1)","(0, 0)","(0, 0)"
141,interactor,142,9.33224390399,0.781787387786,-0.16,45_top_u,True,4.12588909967,,4.52681989968,True,"[0.055153368911473821, 0.055050172866894176, 0.054671662291425172]",False,True,darker,True,0.549033000134,down,left,"(1, 0)","(0, 0)","(0, 0)","(0, 1)","(0, 0)","(0, 0)","(0, 0)","(1, 1)"
142,empty,143,9.6539788422,0.787232626982,-0.16,none_r,True,4.12492060009,right,4.58343720017,True,"[0.067921939359873784, 0.067817612420425277, 0.067434953859741187]",False,False,darker,True,0.600622499827,left,down,"(0, 0)","(1, 0)","(0, 1)","(0, 0)","(0, 0)","(1, 0)","(0, 1)","(0, 0)"
143,interactor,144,9.3315002844,0.826548775755,0.08,135_top_u,False,,,4.54947269987,True,"[0.75667916061911566, 0.7565138313920674, 0.7559074238390755]",True,False,lighter,True,0.600780500099,down,up,"(1, 1)","(0, 0)","(0, 0)","(0, 0)","(0, 1)","(1, 0)","(0, 0)","(0, 0)"
144,empty,145,9.13389343513,0.716506246591,-0.08,none_r,False,,,4.55051010009,True,"[0.089731459323928009, 0.089625200745046207, 0.089235457165193433]",True,True,darker,True,0.425329399761,left,right,"(0, 0)","(1, 1)","(0, 0)","(0, 0)","(0, 0)","(1, 1)","(0, 0)","(0, 0)"
145,empty,146,9.86642754073,0.836347273302,0.08,none_l,False,,,4.55013220012,True,"[0.78193331293615587, 0.78176574698328571, 0.78115113539125303]",True,True,lighter,True,0.574907199945,right,left,"(0, 0)","(0, 0)","(0, 0)","(1, 1)","(0, 0)","(0, 0)","(0, 0)","(1, 1)"
146,empty,147,9.61460696111,0.719264644663,0.08,none_u,True,4.12480850006,right,4.52439319994,True,"[0.48475496333121959, 0.48461371805941145, 0.48409564753323986]",False,False,darker,False,0.626383400057,down,right,"(1, 0)","(0, 1)","(0, 0)","(0, 0)","(1, 0)","(0, 1)","(0, 0)","(0, 0)"
147,empty,148,9.67336456007,0.74529266104,-0.16,none_d,True,4.12472400023,right,4.52587900031,True,"[-0.029693329788610723, -0.029789011076819638, -0.030139958437343295]",False,False,darker,True,0.749346700031,up,left,"(0, 0)","(0, 0)","(1, 0)","(0, 1)","(0, 0)","(0, 0)","(1, 0)","(0, 1)"
148,empty,149,9.28910667056,0.804966124128,0.08,none_u,False,,,4.54933770001,True,"[0.70129428808704564, 0.70113386422260993, 0.70054544894474202]",True,True,darker,False,0.675872900058,down,up,"(1, 1)","(0, 0)","(0, 0)","(0, 0)","(1, 1)","(0, 0)","(0, 0)","(0, 0)"
149,empty,150,9.82455772453,0.858895749965,0.08,none_d,False,,,4.54911200004,True,"[0.84030451370795567, 0.84013177789745219, 0.8394982038946468]",True,True,lighter,True,0.700741700362,up,down,"(0, 0)","(0, 0)","(1, 1)","(0, 0)","(0, 0)","(0, 0)","(1, 1)","(0, 0)"
150,empty,151,9.46093935278,0.691167634985,0.16,none_l,False,,,4.55108809983,True,"[0.61524026833448442, 0.61508746615719767, 0.61452700630340273]",True,True,lighter,True,0.701877300162,right,left,"(0, 0)","(0, 0)","(0, 0)","(1, 1)","(0, 0)","(0, 0)","(0, 0)","(1, 1)"
151,empty,152,9.38786530021,0.852857482143,0.08,none_l,True,4.12557839975,left,4.52641349984,True,"[0.82463853247302854, 0.82446718417711451, 0.82383869940953836]",False,False,darker,False,0.574519200251,right,down,"(0, 0)","(0, 0)","(0, 1)","(1, 0)","(0, 0)","(0, 0)","(0, 1)","(1, 0)"
152,interactor,153,9.92387148502,0.909716200982,-0.08,135_bottom_r,True,4.12654289976,,4.55048689991,True,"[0.5610624181676569, 0.56091441444865953, 0.56037155475789158]",False,True,darker,True,0.776569100097,left,up,"(0, 1)","(1, 0)","(0, 0)","(0, 0)","(1, 1)","(0, 0)","(0, 0)","(0, 0)"
153,empty,154,9.71109364778,0.808376589821,0.08,none_l,False,,,4.55077520013,True,"[0.71002390181248254, 0.70986270477806723, 0.70927145360648525]",True,True,lighter,True,0.599129499868,right,left,"(0, 0)","(0, 0)","(0, 0)","(1, 1)","(0, 0)","(0, 0)","(0, 0)","(1, 1)"
154,empty,155,9.33829466633,0.753486555316,0.16,none_d,True,4.12536749989,left,4.52634500014,True,"[0.77455323157139255, 0.77438631926226109, 0.77377410515618994]",False,False,lighter,True,0.598629499786,up,right,"(0, 0)","(0, 1)","(1, 0)","(0, 0)","(0, 0)","(0, 1)","(1, 0)","(0, 0)"
155,empty,156,9.3915346701,0.852923092331,-0.08,none_r,False,,,4.55160730006,True,"[0.41932948910388435, 0.41919403847708714, 0.41869722200601345]",True,True,darker,True,0.49944090005,left,right,"(0, 0)","(1, 1)","(0, 0)","(0, 0)","(0, 0)","(1, 1)","(0, 0)","(0, 0)"
156,empty,157,9.11787647477,0.877452776963,-0.16,none_r,True,4.12657709979,left,4.52624680009,True,"[0.28338894491608313, 0.2832655343578574, 0.28281287939803468]",False,False,darker,True,0.549670799635,left,up,"(0, 1)","(1, 0)","(0, 0)","(0, 0)","(0, 1)","(1, 0)","(0, 0)","(0, 0)"
157,empty,158,9.3281750885,0.85994067226,0.08,none_l,False,,,4.55081090005,True,"[0.84301807388792183, 0.84284509774109528, 0.84221064221380271]",True,True,lighter,True,0.651145000011,right,left,"(0, 0)","(0, 0)","(0, 0)","(1, 1)","(0, 0)","(0, 0)","(0, 0)","(1, 1)"
158,empty,159,9.27526787092,0.643184289955,0.0,none_d,False,,,4.54889680026,True,"[0.10548609368178852, 0.1053784397364308, 0.10498357812158243]",True,True,darker,,0.901390099898,up,down,"(0, 0)","(0, 0)","(1, 1)","(0, 0)","(0, 0)","(0, 0)","(1, 1)","(0, 0)"
159,interactor,160,9.74628071679,0.611978897374,0.0,135_bottom_d,False,,,4.54962459998,True,"[0.0322239651337346, 0.03212279991517164, 0.031751738163222409]",True,False,darker,,0.501102800015,up,down,"(0, 0)","(0, 0)","(1, 1)","(0, 0)","(0, 0)","(0, 0)","(0, 1)","(1, 0)"
160,empty,161,9.5958712284,0.785783475985,0.0,none_u,True,4.12614430021,right,4.52663270012,True,"[0.45120281004106078, 0.4510645364377035, 0.45055736563099336]",False,False,darker,,0.749762899708,down,right,"(1, 0)","(0, 1)","(0, 0)","(0, 0)","(1, 0)","(0, 1)","(0, 0)","(0, 0)"
161,interactor,162,9.7095447046,0.522449027296,-0.08,45_top_u,True,4.1258363002,,4.5261589,True,"[-0.34851778372719344, -0.34858522716840357, -0.34883260153093931]",False,True,darker,True,0.600661700126,down,left,"(1, 0)","(0, 0)","(0, 0)","(0, 1)","(0, 0)","(0, 0)","(0, 0)","(1, 1)"
162,empty,163,9.58863649653,0.76112868432,0.08,none_u,False,,,4.55168960011,True,"[0.58984281515827286, 0.58969226239877148, 0.58914005313659246]",True,True,darker,False,0.600267000031,down,up,"(1, 1)","(0, 0)","(0, 0)","(0, 0)","(1, 1)","(0, 0)","(0, 0)","(0, 0)"
163,interactor,164,8.97467361039,0.698621163124,0.08,135_bottom_r,True,4.12695989991,,4.52578849997,True,"[0.43343542555617787, 0.4332987255858296, 0.43279732667413784]",False,True,darker,False,0.526293999981,left,up,"(0, 1)","(1, 0)","(0, 0)","(0, 0)","(1, 1)","(0, 0)","(0, 0)","(0, 0)"
164,empty,165,9.20730182261,0.638882700493,0.16,none_d,False,,,4.54982419964,True,"[0.48380241436030613, 0.4836612534544622, 0.48314349237241072]",True,True,lighter,True,0.651060800068,up,down,"(0, 0)","(0, 0)","(1, 1)","(0, 0)","(0, 0)","(0, 0)","(1, 1)","(0, 0)"
165,empty,166,9.76499192071,0.816671601315,0.16,none_r,True,4.12637869967,left,4.52513199998,True,"[0.93887946300262581, 0.9386979965433222, 0.93803239957960938]",False,False,lighter,True,0.550888299942,left,up,"(0, 1)","(1, 0)","(0, 0)","(0, 0)","(0, 1)","(1, 0)","(0, 0)","(0, 0)"
166,interactor,167,9.74630141965,0.780742596898,0.16,45_bottom_d,True,4.12601550017,,4.52501810016,True,"[0.84510110469477318, 0.84492794405674698, 0.84429281183811988]",False,True,lighter,True,0.574987099972,up,right,"(0, 0)","(0, 1)","(1, 0)","(0, 0)","(0, 0)","(1, 1)","(0, 0)","(0, 0)"
167,interactor,168,10.1038168388,0.598540891808,-0.16,45_bottom_l,True,4.12428630004,,4.54933280032,True,"[-0.35691615950127065, -0.35698285910979366, -0.35722750518425017]",False,True,darker,True,0.600529799704,right,up,"(0, 1)","(0, 0)","(0, 0)","(1, 0)","(1, 1)","(0, 0)","(0, 0)","(0, 0)"
168,empty,169,9.49095466365,0.712454539121,0.08,none_d,True,4.12490449985,right,4.52594459988,True,"[0.467788026993323, 0.46764828445992301, 0.46713572579597407]",False,False,lighter,True,0.825151400175,up,left,"(0, 0)","(0, 0)","(1, 0)","(0, 1)","(0, 0)","(0, 0)","(1, 0)","(0, 1)"
169,empty,170,9.72190119296,0.869083417851,-0.16,none_l,True,4.12578100013,right,4.52573450003,True,"[0.26310064491660934, 0.26297903126544075, 0.26253296714276697]",False,False,darker,True,0.551622299943,right,up,"(0, 1)","(0, 0)","(0, 0)","(1, 0)","(0, 1)","(0, 0)","(0, 0)","(1, 0)"
170,interactor,171,9.66934515597,0.721361132554,0.16,45_bottom_d,True,4.12607760029,,4.52585720038,True,"[0.69207589520241086, 0.69191628779846015, 0.69133086719862225]",False,True,lighter,True,0.601513799746,up,right,"(0, 0)","(0, 1)","(1, 0)","(0, 0)","(0, 0)","(1, 1)","(0, 0)","(0, 0)"
171,interactor,172,9.69623263283,0.717806994611,0.16,135_top_l,False,,,4.55001989985,True,"[0.68299676415584698, 0.68283796087814785, 0.68225548971587635]",True,False,lighter,True,0.576016300358,right,left,"(0, 0)","(0, 0)","(0, 0)","(1, 1)","(0, 0)","(0, 0)","(1, 0)","(0, 1)"
172,empty,173,9.55853158901,0.78261862494,-0.16,none_r,True,4.12647350039,right,4.52485260041,True,"[0.057100739873143125, 0.056997371352573989, 0.056618228156092965]",False,False,darker,True,0.876805999782,left,down,"(0, 0)","(1, 0)","(0, 1)","(0, 0)","(0, 0)","(1, 0)","(0, 1)","(0, 0)"
173,interactor,174,9.71213862478,0.826862317941,0.0,135_bottom_r,False,,,4.55146800028,True,"[0.55388079918316468, 0.55373343153036614, 0.55319290485326511]",True,False,darker,,0.624835399911,left,right,"(0, 0)","(1, 1)","(0, 0)","(0, 0)","(1, 0)","(0, 1)","(0, 0)","(0, 0)"
174,interactor,175,9.35740336409,0.758606308024,0.16,135_bottom_d,True,4.1241504997,,4.52496179985,True,"[0.78776524397274228, 0.7875971614936943, 0.78698065534629147]",False,True,lighter,True,0.57525340002,up,left,"(0, 0)","(0, 0)","(1, 0)","(0, 1)","(0, 0)","(0, 0)","(0, 0)","(1, 1)"
175,empty,176,9.45877056585,0.756601972079,0.0,none_r,False,,,4.54968249984,True,"[0.37906976519416768, 0.37893788031620068, 0.37845414257937149]",True,True,darker,,0.526190700009,left,right,"(0, 0)","(1, 1)","(0, 0)","(0, 0)","(0, 0)","(1, 1)","(0, 0)","(0, 0)"
176,interactor,177,9.40505841586,0.696366349704,0.0,45_bottom_d,True,4.12651719991,,4.52534710011,True,"[0.23238759519141228, 0.23226870175316416, 0.23183261504156438]",False,True,darker,,0.625172299799,up,right,"(0, 0)","(0, 1)","(1, 0)","(0, 0)","(0, 0)","(1, 1)","(0, 0)","(0, 0)"
177,empty,178,9.25232734151,0.739597175147,0.0,none_r,True,4.12488440005,left,4.52569939988,True,"[0.33735399453669346, 0.33722580436763305, 0.33675561837495871]",False,False,darker,,0.624714000151,left,up,"(0, 1)","(1, 0)","(0, 0)","(0, 0)","(0, 1)","(1, 0)","(0, 0)","(0, 0)"
178,empty,179,9.70464653994,0.802252417773,0.08,none_l,False,,,4.55042270012,True,"[0.69435414206598134, 0.69419433288081156, 0.69360817217194248]",True,True,lighter,True,0.600598600227,right,left,"(0, 0)","(0, 0)","(0, 0)","(1, 1)","(0, 0)","(0, 0)","(0, 0)","(1, 1)"
179,interactor,180,9.78239724942,0.861134972793,0.0,45_bottom_d,False,,,4.54962560022,True,"[0.64053074824443024, 0.64037570612383532, 0.63980703042965392]",True,False,lighter,,0.700252799783,up,down,"(0, 0)","(0, 0)","(1, 1)","(0, 0)","(0, 0)","(1, 0)","(0, 1)","(0, 0)"
180,empty,181,9.78737762103,0.820161763773,-0.08,none_r,True,4.12659899984,right,4.52739149984,True,"[0.33873521527277139, 0.3386069027708738, 0.33813626807619235]",False,False,space,,,left,down,"(0, 0)","(1, 0)","(0, 1)","(0, 0)","(0, 0)","(1, 0)","(0, 1)","(0, 0)"
181,interactor,182,9.54557648313,0.775665698929,0.08,45_bottom_d,False,,,4.55027530016,True,"[0.62664425059945761, 0.62649043838701979, 0.62592627384678057]",True,False,lighter,True,0.575873699971,up,down,"(0, 0)","(0, 0)","(1, 1)","(0, 0)","(0, 0)","(1, 0)","(0, 1)","(0, 0)"
182,empty,183,9.83473003633,0.794434256827,0.08,none_l,True,4.12531210016,right,4.55129690003,True,"[0.67438951794378865, 0.67423147699814501, 0.67365180197739805]",False,False,,False,,right,up,"(0, 1)","(0, 0)","(0, 0)","(1, 0)","(0, 1)","(0, 0)","(0, 0)","(1, 0)"
183,interactor,184,9.19257434126,0.685611213203,-0.16,135_bottom_d,True,4.12529000035,,4.52518300014,True,"[-0.16558802207031087, -0.16567166735098937, -0.16597846809566696]",False,True,m,,,up,left,"(0, 0)","(0, 0)","(1, 0)","(0, 1)","(0, 0)","(0, 0)","(0, 0)","(1, 1)"
184,empty,185,9.73194700526,0.585208278839,0.08,none_r,True,4.12497079978,right,4.52432659967,True,"[0.15773291510981213, 0.15762063373474788, 0.15720879926896636]",False,False,darker,False,0.826850700192,left,down,"(0, 0)","(1, 0)","(0, 1)","(0, 0)","(0, 0)","(1, 0)","(0, 1)","(0, 0)"
185,interactor,186,8.96925064433,0.87149332625,-0.16,135_bottom_d,False,,,4.54903250001,True,"[0.26893643813185331, 0.26881430761243963, 0.26836634767973155]",True,False,darker,True,0.775872599799,up,down,"(0, 0)","(0, 0)","(1, 1)","(0, 0)","(0, 0)","(0, 0)","(0, 1)","(1, 0)"
186,interactor,187,9.28715588174,0.886937898201,-0.08,45_top_u,False,,,4.55025469977,True,"[0.50391571487130338, 0.50377277255786801, 0.50324847748882906]",True,False,darker,True,0.549593300093,down,up,"(1, 1)","(0, 0)","(0, 0)","(0, 0)","(0, 1)","(0, 0)","(0, 0)","(1, 0)"
187,empty,188,10.029338312,0.825563160776,0.16,none_u,False,,,4.55092960037,True,"[0.96222203049684274, 0.96203849661817764, 0.9613653166109859]",True,True,lighter,True,0.623919299804,down,up,"(1, 1)","(0, 0)","(0, 0)","(0, 0)","(1, 1)","(0, 0)","(0, 0)","(0, 0)"
188,empty,189,9.68638334371,0.710386309421,0.0,none_d,True,4.12400549976,left,4.5250180997,True,"[0.26625509035239636, 0.26613319731629814, 0.26568610844358798]",False,False,darker,,0.99989029998,up,right,"(0, 0)","(0, 1)","(1, 0)","(0, 0)","(0, 0)","(0, 1)","(1, 0)","(0, 0)"
189,empty,190,9.29334729357,0.867203529085,-0.08,none_u,True,4.12471350003,right,4.52417659992,True,"[0.45473032675706437, 0.45459174072636332, 0.45408342397404788]",False,False,darker,True,0.651064699981,down,right,"(1, 0)","(0, 1)","(0, 0)","(0, 0)","(1, 0)","(0, 1)","(0, 0)","(0, 0)"
190,empty,191,9.42455854457,0.754917033266,-0.16,none_l,False,,,4.55115400022,True,"[-0.0074425863301724737, -0.0075402383363792902, -0.0078984140515002688]",True,True,darker,True,0.649462800007,right,left,"(0, 0)","(0, 0)","(0, 0)","(1, 1)","(0, 0)","(0, 0)","(0, 0)","(1, 1)"
191,interactor,192,9.46988291773,0.731269452146,0.16,135_top_u,True,4.1249830001,,4.52474590018,True,"[0.71743520126760441, 0.71727334782450614, 0.71667968902548496]",False,True,lighter,True,0.600688099861,down,right,"(1, 0)","(0, 1)","(0, 0)","(0, 0)","(0, 0)","(1, 1)","(0, 0)","(0, 0)"
192,interactor,193,9.24867146228,0.735991905238,0.08,45_bottom_d,True,4.12415320007,,4.52490219986,True,"[0.52658295068499306, 0.52643800076539993, 0.52590634204046749]",False,True,,False,,up,right,"(0, 0)","(0, 1)","(1, 0)","(0, 0)","(0, 0)","(1, 1)","(0, 0)","(0, 0)"
193,empty,194,9.51887656619,0.690501434933,-0.16,none_d,True,4.12410939997,right,4.52460399969,True,"[-0.15459191285699492, -0.15467653204806731, -0.1549869049779502]",False,False,x,,,up,left,"(0, 0)","(0, 0)","(1, 0)","(0, 1)","(0, 0)","(0, 0)","(1, 0)","(0, 1)"
194,interactor,195,9.15374587015,0.830907678215,-0.08,45_top_r,False,,,4.55011689989,True,"[0.36507428090445981, 0.36494363558744647, 0.36446444440985371]",True,False,darker,True,0.524208699819,left,right,"(0, 0)","(1, 1)","(0, 0)","(0, 0)","(0, 0)","(0, 1)","(1, 0)","(0, 0)"
195,interactor,196,9.65620175505,0.792451066268,0.08,135_bottom_r,True,4.12584500015,,4.52670460008,True,"[0.66933227576679521, 0.66917468273419489, 0.66859665060415829]",False,True,lighter,True,0.899174300022,left,up,"(0, 1)","(1, 0)","(0, 0)","(0, 0)","(1, 1)","(0, 0)","(0, 0)","(0, 0)"
196,interactor,197,9.51311323088,0.789378168389,-0.08,135_bottom_r,False,,,4.55113819987,True,"[0.26381414203557862, 0.26369246519094358, 0.26324616928229849]",True,False,darker,True,0.449669599999,left,right,"(0, 0)","(1, 1)","(0, 0)","(0, 0)","(1, 0)","(0, 1)","(0, 0)","(0, 0)"
197,interactor,198,8.82686511875,0.786477655972,-0.16,45_bottom_d,False,,,4.54989650007,True,"[0.06614994314109679, 0.066045773144938646, 0.06566369023319929]",True,False,darker,True,0.525374799967,up,down,"(0, 0)","(0, 0)","(1, 1)","(0, 0)","(0, 0)","(1, 0)","(0, 1)","(0, 0)"
198,interactor,199,9.54193829037,0.79059538619,-0.08,45_top_u,True,4.12515919982,,4.52637109999,True,"[0.26676142322691732, 0.26663948534560755, 0.26619223198609854]",False,True,darker,True,0.650319300126,down,left,"(1, 0)","(0, 0)","(0, 0)","(0, 1)","(0, 0)","(0, 0)","(0, 0)","(1, 1)"
199,empty,200,9.36777022015,0.85339243637,0.16,none_d,True,4.12656950019,left,4.52648920007,True,"[1.0, 1.0, 1.0]",False,False,lighter,True,0.625878199935,up,right,"(0, 0)","(0, 1)","(1, 0)","(0, 0)","(0, 0)","(0, 1)","(1, 0)","(0, 0)"
200,empty,201,9.62380050629,0.880843471032,0.08,none_d,True,4.1224746001,right,4.52245929977,True,"[0.89745821245902557, 0.89728041462338282, 0.89662827372631138]",False,False,space,,,up,left,"(0, 0)","(0, 0)","(1, 0)","(0, 1)","(0, 0)","(0, 0)","(1, 0)","(0, 1)"
201,interactor,202,9.83058690766,0.546498261371,0.08,45_bottom_l,True,4.1267150999,,4.5517934002,True,"[0.066198299093517488, 0.066094124814536803, 0.065712026193931017]",False,True,darker,False,0.575654699933,right,up,"(0, 1)","(0, 0)","(0, 0)","(1, 0)","(1, 1)","(0, 0)","(0, 0)","(0, 0)"
202,empty,203,9.63176836151,0.728558962261,-0.08,none_u,False,,,4.55041830009,True,"[0.11819561018552438, 0.11808683057562663, 0.11768784015976941]",True,True,darker,True,0.700356499758,down,up,"(1, 1)","(0, 0)","(0, 0)","(0, 0)","(1, 1)","(0, 0)","(0, 0)","(0, 0)"
203,interactor,204,9.35712354301,0.701780303159,-0.08,45_top_r,True,4.12494450016,,4.52476770012,True,"[0.055136774282534384, 0.055033579707717495, 0.054655074523163982]",False,True,darker,True,0.749680700246,left,down,"(0, 0)","(1, 0)","(0, 1)","(0, 0)","(0, 0)","(0, 0)","(1, 1)","(0, 0)"
204,empty,205,9.8807662335,0.8501808021,-0.16,none_l,True,4.12708020024,left,4.55177689996,True,"[0.21749930696810793, 0.21738173216523893, 0.21695048204828304]",False,False,darker,True,0.574722399935,right,down,"(0, 0)","(0, 0)","(0, 1)","(1, 0)","(0, 0)","(0, 0)","(0, 1)","(1, 0)"
205,empty,206,9.47592416654,0.801237364118,-0.16,none_l,False,,,4.54992409982,True,"[0.10088872317300712, 0.10078147641048507, 0.10038810829289124]",True,True,darker,True,0.500736100134,right,left,"(0, 0)","(0, 0)","(0, 0)","(1, 1)","(0, 0)","(0, 0)","(0, 0)","(1, 1)"
206,interactor,207,10.0230215142,0.787838485475,0.0,45_bottom_l,False,,,4.55072769988,True,"[0.45630812022971123, 0.45616939445599436, 0.45566056514324615]",True,False,darker,,0.825504699722,right,left,"(0, 0)","(0, 0)","(0, 0)","(1, 1)","(1, 0)","(0, 0)","(0, 0)","(0, 1)"
207,interactor,208,9.06493443726,0.790850563129,-0.16,45_bottom_d,True,4.12433419982,,4.52475459967,True,"[0.076421008238600985, 0.076315928548216005, 0.075930508988389267]",False,True,darker,True,0.525387499947,up,right,"(0, 0)","(0, 1)","(1, 0)","(0, 0)","(0, 0)","(1, 1)","(0, 0)","(0, 0)"
208,interactor,209,9.48835436087,0.698211671812,0.08,135_top_l,False,,,4.55061929999,True,"[0.43242084061953645, 0.43228423050959264, 0.43178316119496363]",True,False,darker,False,0.476183999795,right,left,"(0, 0)","(0, 0)","(0, 0)","(1, 1)","(0, 0)","(0, 0)","(1, 0)","(0, 1)"
209,empty,210,9.09773182847,0.649587928849,0.08,none_l,True,4.1248931,left,4.52556100022,True,"[0.31291107384037065, 0.3127850485474557, 0.31232280305791638]",False,False,lighter,True,0.849737099838,right,down,"(0, 0)","(0, 0)","(0, 1)","(1, 0)","(0, 0)","(0, 0)","(0, 1)","(1, 0)"
210,interactor,211,9.6904416541,0.70213802218,0.0,45_bottom_l,True,4.12606350007,,4.52592970012,True,"[0.2463095630801897, 0.24618943659223591, 0.24574882720386415]",False,True,darker,,0.575888500083,right,up,"(0, 1)","(0, 0)","(0, 0)","(1, 0)","(1, 1)","(0, 0)","(0, 0)","(0, 0)"
211,interactor,212,9.56819965542,0.831867274067,-0.08,45_top_r,False,,,4.54935970018,True,"[0.36743093079382461, 0.36730007675154575, 0.36682011999499209]",True,False,darker,True,0.550227299798,left,right,"(0, 0)","(1, 1)","(0, 0)","(0, 0)","(0, 0)","(0, 1)","(1, 0)","(0, 0)"
212,empty,213,9.41781729073,0.827971739809,0.08,none_r,False,,,4.5494551002,True,"[0.76034241953418857, 0.76017676585729621, 0.75956916826162191]",True,True,lighter,True,0.702272799797,left,right,"(0, 0)","(1, 1)","(0, 0)","(0, 0)","(0, 0)","(1, 1)","(0, 0)","(0, 0)"
213,interactor,214,9.42009055881,0.748013581037,0.16,45_top_u,False,,,4.54892069986,True,"[0.76045015674626448, 0.76028449352723482, 0.75967686093215603]",True,False,lighter,True,0.651526100002,down,up,"(1, 1)","(0, 0)","(0, 0)","(0, 0)","(0, 1)","(0, 0)","(0, 0)","(1, 0)"
214,empty,215,9.65263241678,0.677466437713,0.16,none_l,True,4.12560500018,left,4.52407310018,True,"[0.58059653105878728, 0.58044679723005621, 0.57989759170662025]",False,False,lighter,True,0.601153300144,right,down,"(0, 0)","(0, 0)","(0, 1)","(1, 0)","(0, 0)","(0, 0)","(0, 1)","(1, 0)"
215,interactor,216,9.13953835783,0.791805038181,0.16,135_bottom_d,False,,,4.55182080017,True,"[0.87388141308559497, 0.87370570341491272, 0.87306122165365752]",True,False,lighter,True,0.674077400006,up,down,"(0, 0)","(0, 0)","(1, 1)","(0, 0)","(0, 0)","(0, 0)","(0, 1)","(1, 0)"
216,interactor,217,9.58424237308,0.822683991528,0.08,45_bottom_d,False,,,4.55223250017,True,"[0.746736971390763, 0.74657252272985275, 0.74596934498665846]",True,False,lighter,True,0.573800500017,up,down,"(0, 0)","(0, 0)","(1, 1)","(0, 0)","(0, 0)","(1, 0)","(0, 1)","(0, 0)"
217,empty,218,9.33373377337,0.700040796944,0.16,none_d,False,,,4.55046380032,True,"[0.63775086440759354, 0.63759606849751815, 0.63702829587366128]",True,True,lighter,True,0.600372099783,up,down,"(0, 0)","(0, 0)","(1, 1)","(0, 0)","(0, 0)","(0, 0)","(1, 1)","(0, 0)"
218,interactor,219,9.28595432837,0.690338414495,-0.08,135_top_l,False,,,4.5501683997,True,"[0.028397912925087754, 0.028297086574750274, 0.027927267750352147]",True,False,darker,True,0.575959300157,right,left,"(0, 0)","(0, 0)","(0, 0)","(1, 1)","(0, 0)","(0, 0)","(1, 0)","(0, 1)"
219,interactor,220,9.74352082124,0.835415369938,0.16,135_bottom_r,False,,,4.55125920009,True,"[0.98814808641126084, 0.98796225629718681, 0.98728065397701381]",True,False,lighter,True,0.599605800118,left,right,"(0, 0)","(1, 1)","(0, 0)","(0, 0)","(1, 0)","(0, 1)","(0, 0)","(0, 0)"
220,interactor,221,9.52814750697,0.866437838713,0.08,45_bottom_l,False,,,4.55089200009,True,"[0.8599074756149403, 0.85973300359683913, 0.85909306139514308]",True,False,lighter,True,0.551163400058,right,left,"(0, 0)","(0, 0)","(0, 0)","(1, 1)","(1, 0)","(0, 0)","(0, 0)","(0, 1)"
221,interactor,222,9.57439282648,0.751554019508,-0.16,45_bottom_l,False,,,4.55052990001,True,"[-0.015227898750840629, -0.015324861222544839, -0.015680507808743749]",True,False,darker,True,0.524613300338,right,left,"(0, 0)","(0, 0)","(0, 0)","(1, 1)","(1, 0)","(0, 0)","(0, 0)","(0, 1)"
222,empty,223,9.6826159947,0.711079036393,0.0,none_u,True,4.12582360022,right,4.52547280025,True,"[0.26793284861946964, 0.26781080698661031, 0.26736317307900248]",False,False,darker,,0.600998200011,down,right,"(1, 0)","(0, 1)","(0, 0)","(0, 0)","(1, 0)","(0, 1)","(0, 0)","(0, 0)"
223,empty,224,9.66738972512,0.703461234597,0.0,none_u,True,4.12567300024,right,4.52609089995,True,"[0.24950535253044226, 0.24938494299577596, 0.24894329542639171]",False,False,darker,,0.650407000445,down,right,"(1, 0)","(0, 1)","(0, 0)","(0, 0)","(1, 0)","(0, 1)","(0, 0)","(0, 0)"
224,interactor,225,9.13674526485,0.758497653159,-0.16,135_bottom_r,True,4.12605309999,,4.5268321,True,"[0.00085858095707180837, 0.00076019372780100625, 0.00039932130365372132]",False,True,darker,True,0.550494999625,left,up,"(0, 1)","(1, 0)","(0, 0)","(0, 0)","(1, 1)","(0, 0)","(0, 0)","(0, 0)"
225,empty,226,9.59207528266,0.831303316793,0.16,none_r,True,4.12543579983,right,4.52478819992,True,"[0.97731939498088916, 0.97713452394924372, 0.97645643942710048]",False,False,lighter,True,0.550904999953,left,down,"(0, 0)","(1, 0)","(0, 1)","(0, 0)","(0, 0)","(1, 0)","(0, 1)","(0, 0)"
226,interactor,227,9.41713220837,0.835288713611,0.08,135_top_u,True,4.12495880015,,4.52453349996,True,"[0.77920176791172446, 0.77903444388807008, 0.77842071966306325]",False,True,lighter,True,0.575363500044,down,right,"(1, 0)","(0, 1)","(0, 0)","(0, 0)","(0, 0)","(1, 1)","(0, 0)","(0, 0)"
227,interactor,228,9.49399669529,0.776982363544,-0.08,135_bottom_r,False,,,4.55066720024,True,"[0.23387212405453695, 0.23375309913359188, 0.23331653015940845]",True,False,darker,True,0.451130699832,left,right,"(0, 0)","(1, 1)","(0, 0)","(0, 0)","(1, 0)","(0, 1)","(0, 0)","(0, 0)"
228,interactor,229,9.48600443435,0.898999445444,0.0,135_bottom_r,False,,,4.55063700024,True,"[0.73726834935199914, 0.73710473931402754, 0.73650463753805973]",True,False,lighter,,0.65108500002,left,right,"(0, 0)","(1, 1)","(0, 0)","(0, 0)","(1, 0)","(0, 1)","(0, 0)","(0, 0)"
229,empty,230,9.47149272816,0.717698260966,0.0,none_l,True,4.12478030007,left,4.52513589989,True,"[0.28398492373181528, 0.28386146038855942, 0.28340861181964527]",False,False,darker,,0.649929299951,right,down,"(0, 0)","(0, 0)","(0, 1)","(1, 0)","(0, 0)","(0, 0)","(0, 1)","(1, 0)"
230,empty,231,9.45970051196,0.785178962777,-0.08,none_u,True,4.12701749988,left,4.5273756003,True,"[0.2536562084919296, 0.25353543132161338, 0.25309243530925052]",False,False,darker,True,0.599988800008,down,left,"(1, 0)","(0, 0)","(0, 0)","(0, 1)","(1, 0)","(0, 0)","(0, 0)","(0, 1)"
231,interactor,232,10.0051678546,0.734297680101,0.16,45_bottom_l,False,,,4.55002199998,True,"[0.72519974239381635, 0.72503720125590121, 0.72444102007569988]",True,False,lighter,True,0.599737900309,right,left,"(0, 0)","(0, 0)","(0, 0)","(1, 1)","(1, 0)","(0, 0)","(0, 0)","(0, 1)"
232,empty,233,9.53597218662,0.787600872155,-0.08,none_u,False,,,4.55024749972,True,"[0.25951299905974512, 0.25939170316147653, 0.25894680451790042]",True,True,darker,True,0.550434400328,down,up,"(1, 1)","(0, 0)","(0, 0)","(0, 0)","(1, 1)","(0, 0)","(0, 0)","(0, 0)"
233,interactor,234,9.88636059919,0.757758302264,0.0,45_top_u,True,4.12523399992,,4.55095169973,True,"[0.38191502795756915, 0.381782891078561, 0.38129822903247312]",False,True,darker,,0.724309500307,down,left,"(1, 0)","(0, 0)","(0, 0)","(0, 1)","(0, 0)","(0, 0)","(0, 0)","(1, 1)"
234,empty,235,9.50136761104,0.724194707352,0.16,none_r,False,,,4.55010289978,True,"[0.6993208926051131, 0.69916064352162466, 0.69857286931906803]",True,True,lighter,True,0.600806800183,left,right,"(0, 0)","(1, 1)","(0, 0)","(0, 0)","(0, 0)","(1, 1)","(0, 0)","(0, 0)"
235,empty,236,9.46859636155,0.583812512119,0.0,none_u,True,4.12404009979,left,4.52473799977,True,"[-0.033107239335538385, -0.033202618258436511, -0.033552456579667767]",False,False,darker,,0.575522699859,down,left,"(1, 0)","(0, 0)","(0, 0)","(0, 1)","(1, 0)","(0, 0)","(0, 0)","(0, 1)"
236,empty,237,9.35816695348,0.74236450257,-0.08,none_r,True,4.12482520007,right,4.52661459986,True,"[0.15096206543202717, 0.15085038374188331, 0.15044074884765712]",False,False,darker,True,0.849587399978,left,down,"(0, 0)","(1, 0)","(0, 1)","(0, 0)","(0, 0)","(1, 0)","(0, 1)","(0, 0)"
237,interactor,238,9.38272032464,0.719411687636,0.16,45_top_u,False,,,4.55112760002,True,"[0.68709485545862514, 0.68693568921857073, 0.68635188675439585]",True,False,lighter,True,0.625710899942,down,up,"(1, 1)","(0, 0)","(0, 0)","(0, 0)","(0, 1)","(0, 0)","(0, 0)","(1, 0)"
238,interactor,239,9.68545259115,0.761685212809,0.16,135_bottom_d,True,4.12578490004,,4.52556140022,True,"[0.79571952810794877, 0.79555074112880475, 0.79493165096049401]",False,True,,False,,up,left,"(0, 0)","(0, 0)","(1, 0)","(0, 1)","(0, 0)","(0, 0)","(0, 0)","(1, 1)"
239,empty,240,9.51932906956,0.622131522801,0.16,none_l,True,4.12372860033,left,4.52357690036,True,"[0.44213841175556112, 0.4420009409735961, 0.44149671481838237]",False,False,x,,,right,down,"(0, 0)","(0, 0)","(0, 1)","(1, 0)","(0, 0)","(0, 0)","(0, 1)","(1, 0)"
240,empty,241,9.89028782581,0.659828048069,-0.08,none_u,True,4.12772759981,right,4.55215570005,True,"[-0.042286499727502425, -0.042381065655827554, -0.04272792201157205]",False,False,darker,True,0.626143399626,down,right,"(1, 0)","(0, 1)","(0, 0)","(0, 0)","(1, 0)","(0, 1)","(0, 0)","(0, 0)"
241,interactor,242,9.13885710764,0.732424336227,0.16,135_bottom_d,True,4.12644590018,,4.52516880026,True,"[0.72039561007673902, 0.72023349443427143, 0.71963887391976056]",False,True,lighter,True,0.625681299716,up,left,"(0, 0)","(0, 0)","(1, 0)","(0, 1)","(0, 0)","(0, 0)","(0, 0)","(1, 1)"
242,empty,243,9.66318577707,0.680434006459,0.0,none_u,False,,,4.55157100037,True,"[0.19410698932891446, 0.19399148635171115, 0.19356783544001632]",True,True,darker,,0.525936099701,down,up,"(1, 1)","(0, 0)","(0, 0)","(0, 0)","(1, 1)","(0, 0)","(0, 0)","(0, 0)"
243,interactor,244,9.64029323757,0.563755278336,-0.08,135_top_l,True,4.1267392002,,4.52561490005,True,"[-0.25864075723523305, -0.25871616096208427, -0.25899273268689582]",False,True,darker,True,0.625486100093,right,down,"(0, 0)","(0, 0)","(0, 1)","(1, 0)","(0, 0)","(0, 0)","(1, 1)","(0, 0)"
244,interactor,245,9.60921677284,0.599291632398,0.16,45_bottom_l,True,4.1248190999,,4.52481780015,True,"[0.38568960982729839, 0.38555713863872354, 0.38507125038568746]",False,True,lighter,True,0.625438000076,right,up,"(0, 1)","(0, 0)","(0, 0)","(1, 0)","(1, 1)","(0, 0)","(0, 0)","(0, 0)"
245,interactor,246,9.69901775259,0.693424407926,0.08,135_top_l,False,,,4.55172939971,True,"[0.42056948774991754, 0.42043392729813212, 0.41993670800231953]",True,False,lighter,True,0.59980909992,right,left,"(0, 0)","(0, 0)","(0, 0)","(1, 1)","(0, 0)","(0, 0)","(1, 0)","(0, 1)"
246,interactor,247,9.63500461309,0.689647062645,-0.16,135_top_l,True,4.12638390018,,4.52628559992,True,"[-0.15651488079621367, -0.15659932967263746, -0.15690907790905062]",False,True,darker,True,0.700559299905,right,down,"(0, 0)","(0, 0)","(0, 1)","(1, 0)","(0, 0)","(0, 0)","(1, 1)","(0, 0)"
247,empty,248,9.28267779382,0.688279613643,0.0,none_d,False,,,4.55090590008,True,"[0.21292993049484976, 0.21281276039542285, 0.2123829946816056]",True,True,,False,,up,down,"(0, 0)","(0, 0)","(1, 1)","(0, 0)","(0, 0)","(0, 0)","(1, 1)","(0, 0)"
248,empty,249,9.80149310345,0.863630930984,0.0,none_l,True,4.12518389989,left,4.5257048998,True,"[0.64687533062893787, 0.64671972657733545, 0.64614898978837165]",False,False,m,,,right,down,"(0, 0)","(0, 0)","(0, 1)","(1, 0)","(0, 0)","(0, 0)","(0, 1)","(1, 0)"
249,empty,250,9.61965026333,0.872295508162,0.16,none_u,True,4.12634960003,left,4.52470279997,True,"[1.0, 1.0, 1.0]",False,False,lighter,True,0.626898200251,down,left,"(1, 0)","(0, 0)","(0, 0)","(0, 1)","(1, 0)","(0, 0)","(0, 0)","(0, 1)"
250,empty,251,9.07621403909,0.708419383921,-0.16,none_u,False,,,4.55145729985,True,"[-0.11408630356380234, -0.11417451028143966, -0.11449804182364964]",True,True,darker,True,0.576137100346,down,up,"(1, 1)","(0, 0)","(0, 0)","(0, 0)","(1, 1)","(0, 0)","(0, 0)","(0, 0)"
251,interactor,252,9.06907419089,0.695109013756,0.08,135_top_l,False,,,4.55074410001,True,"[0.4247378135122819, 0.4246018838775687, 0.42410331046355609]",True,False,darker,False,0.726305500139,right,left,"(0, 0)","(0, 0)","(0, 0)","(1, 1)","(0, 0)","(0, 0)","(1, 0)","(0, 1)"
252,interactor,253,9.83325127502,0.732723936689,-0.08,45_top_r,True,4.12614709977,,4.54976340011,True,"[0.12806268348282046, 0.12795302995969982, 0.12755083413613266]",False,True,darker,True,0.601101199631,left,down,"(0, 0)","(1, 0)","(0, 1)","(0, 0)","(0, 0)","(0, 0)","(1, 1)","(0, 0)"
253,empty,254,9.23478830245,0.612460258419,-0.16,none_d,True,4.12550140033,right,4.52397119999,True,"[-0.32691977231103941, -0.32698912865866026, -0.32724351932990547]",False,False,darker,True,0.650311100297,up,left,"(0, 0)","(0, 0)","(1, 0)","(0, 1)","(0, 0)","(0, 0)","(1, 0)","(0, 1)"
254,empty,255,9.35355023837,0.772979140598,0.0,none_d,True,4.12455409998,left,4.52389730001,True,"[0.41946811389943051, 0.41933265099482298, 0.41883578949023503]",False,False,lighter,,0.701281799935,up,right,"(0, 0)","(0, 1)","(1, 0)","(0, 0)","(0, 0)","(0, 1)","(1, 0)","(0, 0)"
255,empty,256,9.46854155596,0.797904265363,-0.16,none_r,True,4.12400049996,right,4.52401060006,True,"[0.093026217513565435, 0.092919667122445704, 0.092528853210693374]",False,False,darker,True,0.57625020016,left,down,"(0, 0)","(1, 0)","(0, 1)","(0, 0)","(0, 0)","(1, 0)","(0, 1)","(0, 0)"
256,interactor,257,9.78434683301,0.767891052946,0.16,135_top_u,True,4.12489710003,,4.52545269998,True,"[0.81177236213809412, 0.81160215338133734, 0.81097784830517949]",False,True,lighter,True,0.624449300114,down,right,"(1, 0)","(0, 1)","(0, 0)","(0, 0)","(0, 0)","(1, 1)","(0, 0)","(0, 0)"
257,empty,258,9.12159100787,0.91901177622,0.08,none_r,True,4.12569670007,right,4.5254559,True,"[0.99762804567663843, 0.99744137593550231, 0.99675669396510336]",False,False,lighter,True,0.525050100405,left,down,"(0, 0)","(1, 0)","(0, 1)","(0, 0)","(0, 0)","(1, 0)","(0, 1)","(0, 0)"
258,empty,259,9.75265731524,0.830841097177,0.08,none_d,True,4.12433720008,left,4.52421840001,True,"[0.767733617488356, 0.76756730918314275, 0.76695731049018323]",False,False,lighter,True,0.626415799838,up,right,"(0, 0)","(0, 1)","(1, 0)","(0, 0)","(0, 0)","(0, 1)","(1, 0)","(0, 0)"
259,interactor,260,9.65954979412,0.777895658591,-0.16,135_bottom_d,False,,,4.5507240002,True,"[0.046044732481564044, 0.045942343176488487, 0.045566791623676162]",True,False,darker,True,0.549919299781,up,down,"(0, 0)","(0, 0)","(1, 1)","(0, 0)","(0, 0)","(0, 0)","(0, 1)","(1, 0)"
260,empty,261,9.45789113853,0.800352941048,-0.16,none_u,True,4.12484830013,left,4.52513810014,True,"[0.098801443792029708, 0.09869438189699653, 0.098301691850925188]",False,False,lighter,False,0.526018499862,down,left,"(1, 0)","(0, 0)","(0, 0)","(0, 1)","(1, 0)","(0, 0)","(0, 0)","(0, 1)"
261,interactor,262,9.60061331521,0.782700694031,0.08,135_bottom_r,False,,,4.55057279998,True,"[0.64451018512406577, 0.64435479055017475, 0.64378482210004884]",True,False,lighter,True,0.750229700003,left,right,"(0, 0)","(1, 1)","(0, 0)","(0, 0)","(1, 0)","(0, 1)","(0, 0)","(0, 0)"
262,empty,263,9.20247305209,0.766112608411,-0.08,none_u,False,,,4.54992230004,True,"[0.20772552865196392, 0.20760881949931043, 0.20718074448234791]",True,True,darker,True,0.550126499962,down,up,"(1, 1)","(0, 0)","(0, 0)","(0, 0)","(1, 1)","(0, 0)","(0, 0)","(0, 0)"
263,interactor,264,9.38450110537,0.699074319141,-0.16,135_top_l,False,,,4.55027230037,True,"[-0.13525388431824792, -0.13534021625213066, -0.13565687131491189]",True,False,darker,True,0.499799999874,right,left,"(0, 0)","(0, 0)","(0, 0)","(1, 1)","(0, 0)","(0, 0)","(1, 0)","(0, 1)"
264,empty,265,9.59553972052,0.648258210542,0.16,none_r,False,,,4.55026119994,True,"[0.50721725219881875, 0.50707401747272485, 0.50654864986952286]",True,True,lighter,True,0.575707499869,left,right,"(0, 0)","(1, 1)","(0, 0)","(0, 0)","(0, 0)","(1, 1)","(0, 0)","(0, 0)"
265,empty,266,9.1740585425,0.861010377211,0.16,none_d,True,4.12520959973,right,4.52452210011,True,"[1.0, 1.0, 1.0]",False,False,lighter,True,0.626101699658,up,left,"(0, 0)","(0, 0)","(1, 0)","(0, 1)","(0, 0)","(0, 0)","(1, 0)","(0, 1)"
266,empty,267,9.57033504776,0.731725281004,-0.08,none_u,False,,,4.55081589986,True,"[0.12569536990869645, 0.12558592605531049, 0.12518449927489872]",True,True,darker,True,0.449949400034,down,up,"(1, 1)","(0, 0)","(0, 0)","(0, 0)","(1, 1)","(0, 0)","(0, 0)","(0, 0)"
267,interactor,268,9.24333223581,0.855408411638,0.0,45_top_r,False,,,4.55037149973,True,"[0.62599154285975445, 0.62583778845674987, 0.62527383595450448]",True,False,lighter,,0.625682100188,left,right,"(0, 0)","(1, 1)","(0, 0)","(0, 0)","(0, 0)","(0, 1)","(1, 0)","(0, 0)"
268,empty,269,9.86235981357,0.673749195807,-0.16,none_u,True,4.12606549961,right,4.55084449984,True,"[-0.19215435156324123, -0.19223564390035353, -0.19253381433340655]",False,False,darker,True,0.47584570013,down,right,"(1, 0)","(0, 1)","(0, 0)","(0, 0)","(1, 0)","(0, 1)","(0, 0)","(0, 0)"
269,interactor,270,9.09717102607,0.784519654829,-0.16,45_bottom_d,False,,,4.55098199984,True,"[0.061556797406418395, 0.061453034218911684, 0.061072443431971157]",True,False,darker,True,0.650262300391,up,down,"(0, 0)","(0, 0)","(1, 1)","(0, 0)","(0, 0)","(1, 0)","(0, 1)","(0, 0)"
270,interactor,271,9.8344587204,0.688327856653,0.0,45_top_u,False,,,4.54937030002,True,"[0.21304584029340901, 0.21292865992801113, 0.21249885655985001]",True,False,darker,,0.400821800344,down,up,"(1, 1)","(0, 0)","(0, 0)","(0, 0)","(0, 1)","(0, 0)","(0, 0)","(1, 0)"
271,empty,272,9.45960811899,0.872043731513,-0.16,none_r,False,,,4.5489387,True,"[0.27026998410933456, 0.27014773547957427, 0.2696993423324332]",True,True,darker,True,0.45068889996,left,right,"(0, 0)","(1, 1)","(0, 0)","(0, 0)","(0, 0)","(1, 1)","(0, 0)","(0, 0)"
272,empty,273,9.62022882584,0.643104660089,0.0,none_l,False,,,4.5518629998,True,"[0.10529799149623664, 0.10519035421083323, 0.10479555370267635]",True,True,darker,,0.575033999979,right,left,"(0, 0)","(0, 0)","(0, 0)","(1, 1)","(0, 0)","(0, 0)","(0, 0)","(1, 1)"
273,empty,274,9.44240151241,0.709754729132,0.16,none_l,False,,,4.5498657003,True,"[0.66246108117669888, 0.66230409671643131, 0.6617282967558995]",True,True,lighter,True,0.551840999629,right,left,"(0, 0)","(0, 0)","(0, 0)","(1, 1)","(0, 0)","(0, 0)","(0, 0)","(1, 1)"
274,empty,275,9.49104134939,0.755425362208,0.16,none_u,False,,,4.55017649988,True,"[0.77955433643034389, 0.77938698118017702, 0.77877314242010831]",True,True,lighter,True,0.550619899761,down,up,"(1, 1)","(0, 0)","(0, 0)","(0, 0)","(1, 1)","(0, 0)","(0, 0)","(0, 0)"
275,empty,276,9.56542302467,0.845163176101,-0.16,none_u,False,,,4.55095370021,True,"[0.20544661208530557, 0.2053301047731837, 0.20490277008281166]",True,True,darker,True,0.674394699745,down,up,"(1, 1)","(0, 0)","(0, 0)","(0, 0)","(1, 1)","(0, 0)","(0, 0)","(0, 0)"
276,interactor,277,10.004929465,0.835193590583,-0.08,135_top_u,False,,,4.55110489996,True,"[0.37560577392306738, 0.37547419584608277, 0.37499158341804462]",True,False,darker,True,0.426350299735,down,up,"(1, 1)","(0, 0)","(0, 0)","(0, 0)","(0, 1)","(1, 0)","(0, 0)","(0, 0)"
277,empty,278,9.20167427326,0.679263929145,0.0,none_u,False,,,4.5508041,True,"[0.19130440698215145, 0.1911891522258431, 0.19076641175828835]",True,True,darker,,0.476001000032,down,up,"(1, 1)","(0, 0)","(0, 0)","(0, 0)","(1, 1)","(0, 0)","(0, 0)","(0, 0)"
278,empty,279,9.11653104675,0.6790802797,-0.16,none_l,False,,,4.55065400014,True,"[-0.18023354791209467, -0.18031589605852572, -0.18061793907210799]",True,True,darker,True,0.374259499833,right,left,"(0, 0)","(0, 0)","(0, 0)","(1, 1)","(0, 0)","(0, 0)","(0, 0)","(1, 1)"
279,interactor,280,9.56905913252,0.627566319074,0.16,135_top_u,True,4.12471570028,,4.52563709999,True,"[0.45563177913697217, 0.45549311326586484, 0.45498450366861687]",False,True,lighter,True,0.825312400237,down,right,"(1, 0)","(0, 1)","(0, 0)","(0, 0)","(0, 0)","(1, 1)","(0, 0)","(0, 0)"
280,interactor,281,9.34850982268,0.646241452007,-0.16,45_top_r,True,4.12672360009,,4.5265192003,True,"[-0.25316798763928383, -0.2532438760818736, -0.25352222568522398]",False,True,darker,True,0.602301300038,left,down,"(0, 0)","(1, 0)","(0, 1)","(0, 0)","(0, 0)","(0, 0)","(1, 1)","(0, 0)"
281,empty,282,9.29146158289,0.624946090133,-0.16,none_u,True,4.12556069996,right,4.52610020014,True,"[-0.29981544570309371, -0.29988720264395119, -0.30015039840003377]",False,False,darker,True,0.699928899761,down,right,"(1, 0)","(0, 1)","(0, 0)","(0, 0)","(1, 0)","(0, 1)","(0, 0)","(0, 0)"
282,empty,283,9.4155808029,0.823480222968,-0.16,none_r,True,4.12572610006,right,4.52697889972,True,"[0.15361765988857434, 0.15350574299605091, 0.15309524540802655]",False,False,,False,,left,down,"(0, 0)","(1, 0)","(0, 1)","(0, 0)","(0, 0)","(1, 0)","(0, 1)","(0, 0)"
283,empty,284,9.67421113207,0.617632953946,-0.08,none_l,True,4.12553240033,left,4.52501800004,True,"[-0.13851061347026528, -0.13859665696009005, -0.13891225404504748]",False,False,m,,,right,down,"(0, 0)","(0, 0)","(0, 1)","(1, 0)","(0, 0)","(0, 0)","(0, 1)","(1, 0)"
284,interactor,285,9.75212789919,1.01866047038,0.0,135_top_u,True,4.12506400002,,4.52581040002,True,"[1.0, 1.0, 1.0]",False,True,lighter,,0.625138999894,down,right,"(1, 0)","(0, 1)","(0, 0)","(0, 0)","(0, 0)","(1, 1)","(0, 0)","(0, 0)"
285,interactor,286,9.36490026108,0.723497383986,-0.08,45_bottom_d,True,4.12569970032,,4.52570880018,True,"[0.10622574287728637, 0.10611802342220789, 0.10572292152565166]",False,True,lighter,False,0.976013000123,up,right,"(0, 0)","(0, 1)","(1, 0)","(0, 0)","(0, 0)","(1, 1)","(0, 0)","(0, 0)"
286,empty,287,9.45713384022,0.629365225348,0.0,none_d,True,4.12449339963,right,4.52383119985,True,"[0.07293025088597771, 0.072825480367210815, 0.072441194811377896]",False,False,,False,,up,left,"(0, 0)","(0, 0)","(1, 0)","(0, 1)","(0, 0)","(0, 0)","(1, 0)","(0, 1)"
287,empty,288,9.25960950889,0.677239615927,0.08,none_d,False,,,4.55078190006,True,"[0.38063861548598132, 0.38050659165708534, 0.38002234426509474]",True,True,x,,,up,down,"(0, 0)","(0, 0)","(1, 1)","(0, 0)","(0, 0)","(0, 0)","(1, 1)","(0, 0)"
288,interactor,289,9.20956308125,0.801477087516,0.0,135_top_u,False,,,4.54972840007,True,"[0.49027491882506014, 0.49013318465832389, 0.48961332092484899]",True,False,darker,,0.626241900027,down,up,"(1, 1)","(0, 0)","(0, 0)","(0, 0)","(0, 1)","(1, 0)","(0, 0)","(0, 0)"
289,interactor,290,9.50466599445,0.765412044639,-0.16,135_bottom_r,True,4.12442850042,,4.52592950035,True,"[0.016923747010198831, 0.016823936911084969, 0.016457845572921626]",False,True,darker,True,0.674809099641,left,up,"(0, 1)","(1, 0)","(0, 0)","(0, 0)","(1, 1)","(0, 0)","(0, 0)","(0, 0)"
290,empty,291,9.66473657666,0.788084367111,0.16,none_r,False,,,4.55098909978,True,"[0.8641922441260883, 0.86401739261188504, 0.8633760584645116]",True,True,lighter,True,0.676600600127,left,right,"(0, 0)","(1, 1)","(0, 0)","(0, 0)","(0, 0)","(1, 1)","(0, 0)","(0, 0)"
291,empty,292,9.88634736603,0.813013921334,-0.08,none_d,True,4.12442489993,left,4.55031570001,True,"[0.32126808697259657, 0.32114132151042729, 0.320676361169836]",False,False,darker,True,0.775765799917,up,right,"(0, 0)","(0, 1)","(1, 0)","(0, 0)","(0, 0)","(0, 1)","(1, 0)","(0, 0)"
292,interactor,293,9.50392841687,0.629682386771,0.08,135_bottom_d,True,4.12633799994,,4.52709960006,True,"[0.26455063551498581, 0.26442889344012777, 0.26398235827493677]",False,True,lighter,True,0.950003100093,up,left,"(0, 0)","(0, 0)","(1, 0)","(0, 1)","(0, 0)","(0, 0)","(0, 0)","(1, 1)"
293,empty,294,9.1927355597,0.775781281796,0.08,none_r,False,,,4.54908169992,True,"[0.62693748677750638, 0.62678364859353919, 0.62621938879288441]",True,True,lighter,True,0.65033240011,left,right,"(0, 0)","(1, 1)","(0, 0)","(0, 0)","(0, 0)","(1, 1)","(0, 0)","(0, 0)"
294,empty,295,8.88538736287,0.794132705935,0.0,none_l,False,,,4.55047330027,True,"[0.47196569887070683, 0.47182558632660787, 0.47131167050828848]",True,True,,False,,right,left,"(0, 0)","(0, 0)","(0, 0)","(1, 1)","(0, 0)","(0, 0)","(0, 0)","(1, 1)"
295,empty,296,9.4992113817,0.634841633241,0.16,none_u,True,4.12401310029,right,4.52404810023,True,"[0.47373118433462902, 0.47359091542389065, 0.47307642607170308]",False,False,lighter,True,0.552030399907,down,right,"(1, 0)","(0, 1)","(0, 0)","(0, 0)","(1, 0)","(0, 1)","(0, 0)","(0, 0)"
296,interactor,297,9.66556840289,0.871240896438,0.16,135_top_l,True,4.12405120023,,4.5252874,True,"[1.0, 1.0, 1.0]",False,True,lighter,True,0.6008613999,right,down,"(0, 0)","(0, 0)","(0, 1)","(1, 0)","(0, 0)","(0, 0)","(1, 1)","(0, 0)"
297,interactor,298,9.61849205069,0.720295007382,-0.08,135_bottom_d,True,4.12597729964,,4.5258400999,True,"[0.098664742799368987, 0.098557693011755765, 0.098165047374234593]",False,True,lighter,False,0.900636499748,up,left,"(0, 0)","(0, 0)","(1, 0)","(0, 1)","(0, 0)","(0, 0)","(0, 0)","(1, 1)"
298,interactor,299,9.48641863588,0.756497599923,-0.16,135_top_u,False,,,4.54905109992,True,"[-0.0037797986228139679, -0.003877775037130049, -0.0042371406418578728]",True,False,m,,,down,up,"(1, 1)","(0, 0)","(0, 0)","(0, 0)","(0, 1)","(1, 0)","(0, 0)","(0, 0)"
299,interactor,300,9.47745857503,0.787896770123,0.0,45_top_r,True,4.12605399964,,4.5267395,True,"[0.45645296680092207, 0.45631422819834344, 0.45580535183088]",False,True,lighter,,0.798686299939,left,down,"(0, 0)","(1, 0)","(0, 1)","(0, 0)","(0, 0)","(0, 0)","(1, 1)","(0, 0)"
300,interactor,301,9.70962803457,0.711945837981,0.08,45_top_u,True,4.12566639995,,4.52666389989,True,"[0.46652208977734233, 0.46638245936627531, 0.46587031195344286]",False,True,space,,,down,left,"(1, 0)","(0, 0)","(0, 0)","(0, 1)","(0, 0)","(0, 0)","(0, 0)","(1, 1)"
301,empty,302,9.57518598251,0.815287882201,-0.08,none_u,True,4.12573869992,right,4.52537339972,True,"[0.3268203497286799, 0.32669309251017276, 0.32622632846697197]",False,False,darker,True,0.526540700346,down,right,"(1, 0)","(0, 1)","(0, 0)","(0, 0)","(1, 0)","(0, 1)","(0, 0)","(0, 0)"
302,interactor,303,9.60285839216,0.72067540761,0.16,45_bottom_l,True,4.1256138999,,4.52554590022,True,"[0.6903234804656424, 0.69016402827067447, 0.68957917695856108]",False,True,lighter,True,0.551539999899,right,up,"(0, 1)","(0, 0)","(0, 0)","(1, 0)","(1, 1)","(0, 0)","(0, 0)","(0, 0)"
303,interactor,304,9.59181344865,0.776976778831,0.08,45_top_r,True,4.12516820012,,4.52498799982,True,"[0.6299710686828579, 0.62981696181867997, 0.62925171653159628]",False,True,lighter,True,0.724204500206,left,down,"(0, 0)","(1, 0)","(0, 1)","(0, 0)","(0, 0)","(0, 0)","(1, 1)","(0, 0)"
304,empty,305,9.77329776917,0.727992605465,0.16,none_r,False,,,4.55083269998,True,"[0.70904061534575691, 0.70887950539968259, 0.70828857365757325]",True,True,lighter,True,0.550022599753,left,right,"(0, 0)","(1, 1)","(0, 0)","(0, 0)","(0, 0)","(1, 1)","(0, 0)","(0, 0)"
305,empty,306,9.21441518833,0.799494561392,0.16,none_r,False,,,4.54978800006,True,"[0.89393604097928114, 0.89375855509756152, 0.89310755840964728]",True,True,lighter,True,0.54954789998,left,right,"(0, 0)","(1, 1)","(0, 0)","(0, 0)","(0, 0)","(1, 1)","(0, 0)","(0, 0)"
306,empty,307,9.16760366907,0.789273928841,0.08,none_r,False,,,4.54865590017,True,"[0.66123639552672486, 0.66107951953519328, 0.66050411742483561]",True,True,lighter,True,0.625481999945,left,right,"(0, 0)","(1, 1)","(0, 0)","(0, 0)","(0, 0)","(1, 1)","(0, 0)","(0, 0)"
307,empty,308,9.55487517962,0.784555022978,-0.16,none_r,False,,,4.5501468,True,"[0.061639733325033808, 0.061535962792005128, 0.061155345062583466]",True,True,darker,True,0.500897299964,left,right,"(0, 0)","(1, 1)","(0, 0)","(0, 0)","(0, 0)","(1, 1)","(0, 0)","(0, 0)"
308,empty,309,9.75122424082,0.770544115319,-0.08,none_l,True,4.12725579971,left,4.52589449985,True,"[0.21837286389743849, 0.21825521172482443, 0.21782367782502488]",False,False,darker,True,0.649842099752,right,down,"(0, 0)","(0, 0)","(0, 1)","(1, 0)","(0, 0)","(0, 0)","(0, 1)","(1, 0)"
309,empty,310,9.39931762778,0.664634444414,0.16,none_u,False,,,4.55099309981,True,"[0.54827879842280858, 0.54813192693157475, 0.54759322011492206]",True,True,darker,False,0.749699899927,down,up,"(1, 1)","(0, 0)","(0, 0)","(0, 0)","(1, 1)","(0, 0)","(0, 0)","(0, 0)"
310,interactor,311,9.28974049379,0.709261760194,-0.16,135_bottom_r,False,,,4.55022479966,True,"[-0.11217377296565323, -0.11226214907351639, -0.11258630191853214]",True,False,darker,True,0.800306400284,left,right,"(0, 0)","(1, 1)","(0, 0)","(0, 0)","(1, 0)","(0, 1)","(0, 0)","(0, 0)"
311,interactor,312,9.80527099828,0.853939352318,0.08,45_bottom_d,False,,,4.55019819969,True,"[0.82744353095686196, 0.82727193422605794, 0.82664253822943823]",True,False,lighter,True,0.52648520004,up,down,"(0, 0)","(0, 0)","(1, 1)","(0, 0)","(0, 0)","(1, 0)","(0, 1)","(0, 0)"
312,interactor,313,9.73972093276,0.644574439369,0.16,135_bottom_r,True,4.12499889964,,4.52577009983,True,"[0.49800908652895659, 0.49786666735753737, 0.49734429110996214]",False,True,lighter,True,0.576143899933,left,up,"(0, 1)","(1, 0)","(0, 0)","(0, 0)","(1, 1)","(0, 0)","(0, 0)","(0, 0)"
313,interactor,314,9.57999801019,0.776248249284,-0.08,45_bottom_d,True,4.12533379998,,4.52542269975,True,"[0.23210302303780095, 0.23198415480371937, 0.23154816053794947]",False,True,,False,,up,right,"(0, 0)","(0, 1)","(1, 0)","(0, 0)","(0, 0)","(1, 1)","(0, 0)","(0, 0)"
314,interactor,315,9.62673144586,0.845555241653,0.0,45_bottom_l,True,4.12470939988,,4.52433559997,True,"[0.60103223707796416, 0.60088069328662597, 0.60032484903986649]",False,True,lighter,,0.600218799897,right,up,"(0, 1)","(0, 0)","(0, 0)","(1, 0)","(1, 1)","(0, 0)","(0, 0)","(0, 0)"
315,interactor,316,9.57479176149,0.764521709684,0.16,45_bottom_d,False,,,4.54914250039,True,"[0.8030534384202852, 0.8028840018867085, 0.80226252923151975]",True,False,lighter,True,0.524991099723,up,down,"(0, 0)","(0, 0)","(1, 1)","(0, 0)","(0, 0)","(1, 0)","(0, 1)","(0, 0)"
316,interactor,317,9.34547334117,0.69538963424,0.08,45_top_u,False,,,4.54884239985,True,"[0.42543239058077842, 0.42529639942832076, 0.42479760037468606]",True,False,darker,False,0.551231599879,down,up,"(1, 1)","(0, 0)","(0, 0)","(0, 0)","(0, 1)","(0, 0)","(0, 0)","(1, 0)"
317,interactor,318,9.57428519029,0.825233628572,0.0,135_top_u,True,4.12520419993,,4.52616399992,True,"[0.54978507890501116, 0.5496380740045701, 0.5490988778591237]",False,True,,False,,down,right,"(1, 0)","(0, 1)","(0, 0)","(0, 0)","(0, 0)","(1, 1)","(0, 0)","(0, 0)"
318,empty,319,9.72054854206,0.658407849696,0.0,none_r,False,,,4.54933830025,True,"[0.141553616230635, 0.14144276783400223, 0.14103618935931483]",True,True,x,,,left,right,"(0, 0)","(1, 1)","(0, 0)","(0, 0)","(0, 0)","(1, 1)","(0, 0)","(0, 0)"
319,empty,320,9.68280584694,0.721305908058,0.16,none_l,False,,,4.54905100027,True,"[0.6919347527830868, 0.69177515787992849, 0.69118978313147728]",True,True,lighter,True,0.575975799933,right,left,"(0, 0)","(0, 0)","(0, 0)","(1, 1)","(0, 0)","(0, 0)","(0, 0)","(1, 1)"
320,interactor,321,9.23466107693,0.731171365737,0.0,45_bottom_d,False,,,4.5512166,True,"[0.31677233014239037, 0.31664596286327051, 0.31618246300981356]",True,False,darker,,0.775148000102,up,down,"(0, 0)","(0, 0)","(1, 1)","(0, 0)","(0, 0)","(1, 0)","(0, 1)","(0, 0)"
321,empty,322,9.6612382125,0.726545567871,0.16,none_l,True,4.12578869984,right,4.52572380006,True,"[0.70533607469127069, 0.70517529285130931, 0.70458556456262689]",False,False,lighter,True,0.576071199961,right,up,"(0, 1)","(0, 0)","(0, 0)","(1, 0)","(0, 1)","(0, 0)","(0, 0)","(1, 0)"
322,interactor,323,9.3015507247,0.663431091933,0.0,135_top_l,False,,,4.55112770014,True,"[0.15350069658742416, 0.15338879005418105, 0.15297833046273901]",True,False,darker,,0.47595140012,right,left,"(0, 0)","(0, 0)","(0, 0)","(1, 1)","(0, 0)","(0, 0)","(1, 0)","(0, 1)"
323,interactor,324,9.73971882951,0.689245443051,-0.08,45_bottom_l,False,,,4.54871070012,True,"[0.025850232531770212, 0.025749631826009534, 0.025380640638554608]",True,False,darker,True,0.526269199792,right,left,"(0, 0)","(0, 0)","(0, 0)","(1, 1)","(1, 0)","(0, 0)","(0, 0)","(0, 1)"
324,empty,325,9.6175347642,0.860793210098,0.08,none_r,False,,,4.5512329,True,"[0.84523258937092116, 0.84505941708747834, 0.84442424215486867]",True,True,lighter,True,0.523680399638,left,right,"(0, 0)","(1, 1)","(0, 0)","(0, 0)","(0, 0)","(1, 1)","(0, 0)","(0, 0)"
325,interactor,326,9.85063964166,0.721610411322,-0.08,135_top_u,False,,,4.5490313,True,"[0.10176934773186086, 0.10166202297362381, 0.10126836877720269]",True,False,darker,True,0.525934699923,down,up,"(1, 1)","(0, 0)","(0, 0)","(0, 0)","(0, 1)","(1, 0)","(0, 0)","(0, 0)"
326,empty,327,9.75965623471,0.68090431989,-0.16,none_d,False,,,4.54981300002,True,"[-0.17614777418131256, -0.17623048419914955, -0.17653385451316062]",True,True,darker,True,0.450889199972,up,down,"(0, 0)","(0, 0)","(1, 1)","(0, 0)","(0, 0)","(0, 0)","(1, 1)","(0, 0)"
327,empty,328,9.51633159298,0.815814441546,-0.08,none_l,False,,,4.5505287,True,"[0.3281066467577094, 0.3279792756136275, 0.32751209370524204]",True,True,darker,True,0.500017799903,right,left,"(0, 0)","(0, 0)","(0, 0)","(1, 1)","(0, 0)","(0, 0)","(0, 0)","(1, 1)"
328,interactor,329,9.69993415171,0.682883886286,0.0,135_bottom_d,False,,,4.54946190026,True,"[0.19997887032130568, 0.19986284727961245, 0.19943728883444378]",True,False,darker,,0.500424199738,up,down,"(0, 0)","(0, 0)","(1, 1)","(0, 0)","(0, 0)","(0, 0)","(0, 1)","(1, 0)"
329,interactor,330,9.25478954651,0.895167725341,0.16,45_top_u,True,4.12465080013,,4.52545490023,True,"[1.0, 1.0, 1.0]",False,True,lighter,True,0.49946879968,down,left,"(1, 0)","(0, 0)","(0, 0)","(0, 1)","(0, 0)","(0, 0)","(0, 0)","(1, 1)"
330,interactor,331,9.59821841005,0.821096525922,0.16,135_bottom_r,True,4.12594279973,,4.52678899979,True,"[0.95048938610284206, 0.95030689136848578, 0.94963752281659253]",False,True,lighter,True,0.574640000239,left,up,"(0, 1)","(1, 0)","(0, 0)","(0, 0)","(1, 1)","(0, 0)","(0, 0)","(0, 0)"
331,interactor,332,9.59363471483,0.735396405795,-0.16,135_top_l,True,4.12599910004,,4.52511569997,True,"[-0.052477441347276943, -0.052571104677804459, -0.05291465041429444]",False,True,darker,True,0.651879699901,right,down,"(0, 0)","(0, 0)","(0, 1)","(1, 0)","(0, 0)","(0, 0)","(1, 1)","(0, 0)"
332,interactor,333,9.57543709594,0.629233175686,-0.08,135_top_u,True,4.12497100001,,4.5257935999,True,"[-0.11223868324141284, -0.11232705360026018, -0.11265118535858842]",False,True,darker,True,0.67615110008,down,right,"(1, 0)","(0, 1)","(0, 0)","(0, 0)","(0, 0)","(1, 1)","(0, 0)","(0, 0)"
333,interactor,334,9.57092853644,0.807079333617,0.16,135_bottom_r,False,,,4.55122559983,True,"[0.9137568772545539, 0.91357763586840179, 0.91292020020314335]",True,False,lighter,True,0.525538300164,left,right,"(0, 0)","(1, 1)","(0, 0)","(0, 0)","(1, 0)","(0, 1)","(0, 0)","(0, 0)"
334,interactor,335,9.72983368797,0.647139756204,-0.16,135_top_u,False,,,4.55032110028,True,"[-0.25118884370246386, -0.25126490743513219, -0.25154389998123183]",True,False,darker,True,0.376379800029,down,up,"(1, 1)","(0, 0)","(0, 0)","(0, 0)","(0, 1)","(1, 0)","(0, 0)","(0, 0)"
335,interactor,336,9.56847108858,0.738179398564,-0.08,135_bottom_d,False,,,4.55078769987,True,"[0.14101081734451437, 0.14090001702283872, 0.14049361488126255]",True,False,lighter,False,0.576253800187,up,down,"(0, 0)","(0, 0)","(1, 1)","(0, 0)","(0, 0)","(0, 0)","(0, 1)","(1, 0)"
336,empty,337,9.75677298895,0.607654985224,-0.08,none_l,True,4.12508440018,right,4.52498049987,True,"[-0.16099551156351721, -0.16107956359658604, -0.16138785625970287]",False,False,darker,True,0.676104499958,right,up,"(0, 1)","(0, 0)","(0, 0)","(1, 0)","(0, 1)","(0, 0)","(0, 0)","(1, 0)"
337,empty,338,9.52948677108,0.683137241422,0.0,none_u,True,4.12631339999,left,4.5262439996,True,"[0.20058641369484942, 0.2004703368438685, 0.2000445810327578]",False,False,lighter,,0.72532810038,down,left,"(1, 0)","(0, 0)","(0, 0)","(0, 1)","(1, 0)","(0, 0)","(0, 0)","(0, 1)"
338,interactor,339,9.3643863402,0.606249847122,-0.08,135_bottom_d,True,4.12477380037,,4.5246561002,True,"[-0.16415344199688775, -0.1642372143363674, -0.16454448111731401]",False,True,,False,,up,left,"(0, 0)","(0, 0)","(1, 0)","(0, 1)","(0, 0)","(0, 0)","(0, 0)","(1, 1)"
339,interactor,340,9.32942019147,0.800872014232,0.16,45_bottom_d,False,,,4.55087290006,True,"[0.89753275567997837, 0.89735495124214348, 0.89670278612903531]",True,False,lighter,True,0.475729899947,up,down,"(0, 0)","(0, 0)","(1, 1)","(0, 0)","(0, 0)","(1, 0)","(0, 1)","(0, 0)"
340,interactor,341,9.55577770429,0.841892820379,0.0,45_top_r,False,,,4.55120999971,True,"[0.59177334416334681, 0.59162262041952562, 0.5910697840075958]",True,False,lighter,,0.650024299975,left,right,"(0, 0)","(1, 1)","(0, 0)","(0, 0)","(0, 0)","(0, 1)","(1, 0)","(0, 0)"
341,interactor,342,9.68417952572,0.714523473231,0.08,135_top_l,True,4.12562370021,,4.52467670012,True,"[0.47293880209582406, 0.472798603365298, 0.47228437142562463]",False,True,lighter,True,0.800473699812,right,down,"(0, 0)","(0, 0)","(0, 1)","(1, 0)","(0, 0)","(0, 0)","(1, 1)","(0, 0)"
342,interactor,343,9.48442186482,0.672566315126,0.16,135_bottom_r,False,,,4.54977239994,True,"[0.5682407188544194, 0.56809207936312256, 0.56754688773666495]",True,False,lighter,True,0.92447579978,left,right,"(0, 0)","(1, 1)","(0, 0)","(0, 0)","(1, 0)","(0, 1)","(0, 0)","(0, 0)"
343,empty,344,9.79250854194,0.770620074972,-0.16,none_d,False,,,4.55026459973,True,"[0.029054639146833816, 0.028953754631151574, 0.028583722463319861]",True,True,darker,True,0.525695100427,up,down,"(0, 0)","(0, 0)","(1, 1)","(0, 0)","(0, 0)","(0, 0)","(1, 1)","(0, 0)"
344,interactor,345,10.1751585458,0.561204716457,0.16,45_top_r,False,,,4.55013049999,True,"[0.29250334965770275, 0.29237913184908182, 0.29192351599271449]",True,False,lighter,True,0.500707499683,left,right,"(0, 0)","(1, 1)","(0, 0)","(0, 0)","(0, 0)","(0, 1)","(1, 0)","(0, 0)"
345,interactor,346,9.3063455718,0.712581385553,0.16,135_top_u,False,,,4.5492839003,True,"[0.66966450878182671, 0.6695068863238014, 0.66892874626487475]",True,False,lighter,True,0.575545199681,down,up,"(1, 1)","(0, 0)","(0, 0)","(0, 0)","(0, 1)","(1, 0)","(0, 0)","(0, 0)"
346,empty,347,9.25297680958,0.681020957456,-0.16,none_l,True,4.12480430026,left,4.52596440027,True,"[-0.17588638908958143, -0.17596912225793959, -0.17627257748525371]",False,False,darker,True,0.675891099963,right,down,"(0, 0)","(0, 0)","(0, 1)","(1, 0)","(0, 0)","(0, 0)","(0, 1)","(1, 0)"
347,interactor,348,9.32337564117,0.782090972391,-0.16,135_top_l,True,4.12713809963,,4.5266983998,True,"[0.055864512740856798, 0.055761253711238634, 0.055382512114285465]",False,True,darker,True,0.599764999934,right,down,"(0, 0)","(0, 0)","(0, 1)","(1, 0)","(0, 0)","(0, 0)","(1, 1)","(0, 0)"
348,interactor,349,9.38570642443,0.891624977405,0.08,135_bottom_r,True,4.12530479999,,4.52504279977,True,"[0.92565439723719645, 0.92547410210392855, 0.92481280142205047]",False,True,lighter,True,0.651596799958,left,up,"(0, 1)","(1, 0)","(0, 0)","(0, 0)","(1, 1)","(0, 0)","(0, 0)","(0, 0)"
349,interactor,350,9.69296382994,0.699548516031,-0.16,45_bottom_d,True,4.12472929992,,4.5239202003,True,"[-0.1341819718444125, -0.1342683987161204, -0.134585401999332]",False,True,darker,True,0.551442499738,up,right,"(0, 0)","(0, 1)","(1, 0)","(0, 0)","(0, 0)","(1, 1)","(0, 0)","(0, 0)"
350,interactor,351,9.32806041784,0.811171619721,0.08,45_top_r,False,,,4.55097900005,True,"[0.71718446345334352, 0.7170226322177522, 0.71642905487316977]",True,False,darker,False,0.776380300056,left,right,"(0, 0)","(1, 1)","(0, 0)","(0, 0)","(0, 0)","(0, 1)","(1, 0)","(0, 0)"
351,empty,352,9.46652787354,0.869019953562,-0.16,none_u,False,,,4.54955369979,True,"[0.26294702779611301, 0.26282542775060191, 0.26237941353183469]",True,True,darker,True,0.500348099973,down,up,"(1, 1)","(0, 0)","(0, 0)","(0, 0)","(1, 1)","(0, 0)","(0, 0)","(0, 0)"
352,interactor,353,9.26636621729,0.659549924361,-0.16,135_bottom_r,True,4.12416230002,,4.52598919999,True,"[-0.22375391163435121, -0.22383240524153092, -0.22412031027263235]",False,True,darker,True,0.524242999963,left,up,"(0, 1)","(1, 0)","(0, 0)","(0, 0)","(1, 1)","(0, 0)","(0, 0)","(0, 0)"
353,interactor,354,9.9531571413,0.750640434854,-0.16,135_bottom_d,True,4.12476050016,,4.54967059987,True,"[-0.017340921828663647, -0.017437697152796194, -0.017792657304399717]",False,True,darker,True,0.575199900195,up,left,"(0, 0)","(0, 0)","(1, 0)","(0, 1)","(0, 0)","(0, 0)","(0, 0)","(1, 1)"
354,empty,355,9.25124442521,0.735418524849,-0.16,none_r,False,,,4.54975500004,True,"[-0.052426625267934956, -0.052520293099171833, -0.052863855343723842]",True,True,darker,True,0.374341200106,left,right,"(0, 0)","(1, 1)","(0, 0)","(0, 0)","(0, 0)","(1, 1)","(0, 0)","(0, 0)"
355,interactor,356,9.41018566979,0.7006493058,0.16,45_top_r,True,4.12546659959,,4.52524609957,True,"[0.63929674444819096, 0.63914181162162942, 0.63857353680470497]",False,True,lighter,True,0.55034950003,left,down,"(0, 0)","(1, 0)","(0, 1)","(0, 0)","(0, 0)","(0, 0)","(1, 1)","(0, 0)"
356,empty,357,9.54454299087,0.759906008682,0.08,none_r,False,,,4.54932030011,True,"[0.58675473443455095, 0.58660445518214877, 0.58605324911083079]",True,True,lighter,True,0.676368600223,left,right,"(0, 0)","(1, 1)","(0, 0)","(0, 0)","(0, 0)","(1, 1)","(0, 0)","(0, 0)"
357,interactor,358,9.49656605949,0.711148549004,-0.16,45_bottom_l,False,,,4.54869090021,True,"[-0.10788734886432116, -0.10797610461491935, -0.10830164994344604]",True,False,darker,True,0.577240400016,right,left,"(0, 0)","(0, 0)","(0, 0)","(1, 1)","(1, 0)","(0, 0)","(0, 0)","(0, 1)"
358,interactor,359,9.46753802019,0.746014085564,-0.08,135_bottom_r,True,4.12538670003,,4.52541380003,True,"[0.15965280692504802, 0.15954035550778523, 0.15912789734783983]",False,True,darker,True,0.674720900133,left,up,"(0, 1)","(1, 0)","(0, 0)","(0, 0)","(1, 1)","(0, 0)","(0, 0)","(0, 0)"
359,interactor,360,9.47315871494,0.744037173639,0.16,135_top_u,False,,,4.55074069975,True,"[0.75021683519534421, 0.75005207832764387, 0.74944777011932229]",True,False,lighter,True,0.85022540018,down,up,"(1, 1)","(0, 0)","(0, 0)","(0, 0)","(0, 1)","(1, 0)","(0, 0)","(0, 0)"
360,interactor,361,9.76289152692,0.74172226557,-0.16,135_top_u,True,4.12612990011,,4.52597920038,True,"[-0.037924631525930619, -0.03801958377897241, -0.038367857126923588]",False,True,space,,,down,right,"(1, 0)","(0, 1)","(0, 0)","(0, 0)","(0, 0)","(1, 1)","(0, 0)","(0, 0)"
361,empty,362,9.91527194436,0.663216687896,0.08,none_r,True,4.12426760001,left,4.54999770038,True,"[0.34621340682330692, 0.34608443198818373, 0.34561136793556302]",False,False,,False,,left,up,"(0, 1)","(1, 0)","(0, 0)","(0, 0)","(0, 1)","(1, 0)","(0, 0)","(0, 0)"
362,empty,363,9.17786691918,0.606496361805,0.16,none_d,True,4.12639450002,right,4.52471170016,True,"[0.40345088503128701, 0.40331684075079344, 0.40282518258739453]",False,False,lighter,True,0.601748500019,up,left,"(0, 0)","(0, 0)","(1, 0)","(0, 1)","(0, 0)","(0, 0)","(1, 0)","(0, 1)"