trial_type,trial,ball_speed,ball_start_color,ball_color_change,interactor,bounce,bounce_moment,random_bounce_direction,target_onset,ball_change,target_color,abs_congruent,sim_congruent,response,accuracy,rt,start_pos,end_pos,abs_rfup,abs_rfright,abs_rfdown,abs_rfleft,sim_rfup,sim_rfright,sim_rfdown,sim_rfleft
empty,1,9.0292892367,0.62222854252,0.0,none_l,False,,,3.52642216673,True,"[0.056186797927201271, 0.056083510353224897, 0.055704664059023967]",True,True,lighter,,0.493695541751,right,left,"(0, 0)","(0, 0)","(0, 0)","(1, 1)","(0, 0)","(0, 0)","(0, 0)","(1, 1)"
interactor,2,9.51809833196,0.822202686241,0.0,135_top_l,True,3.3077885001,,3.50734608341,True,"[0.54216844626374372, 0.54202211595806982, 0.54148539414439822]",False,True,lighter,,0.366082458058,right,down,"(0, 0)","(0, 0)","(0, 1)","(1, 0)","(0, 0)","(0, 0)","(1, 1)","(0, 0)"
interactor,3,9.55959972763,0.630484328264,-0.174,45_bottom_l,True,3.31662062509,,3.51641945844,True,"[-0.31820446271108527, -0.31827459096178834, -0.31853181287992371]",False,True,darker,True,0.468004374998,right,up,"(0, 1)","(0, 0)","(0, 0)","(1, 0)","(1, 1)","(0, 0)","(0, 0)","(0, 0)"
interactor,4,9.30252526831,0.850516429085,0.06,45_bottom_l,False,,,3.52621270833,True,"[0.7668970102206687, 0.76673077601261985, 0.7661210490990733]",True,False,lighter,True,0.445915416582,right,left,"(0, 0)","(0, 0)","(0, 0)","(1, 1)","(1, 0)","(0, 0)","(0, 0)","(0, 1)"
empty,5,9.45418099752,0.842315658745,-0.174,none_l,False,,,3.53354004142,True,"[0.16513966546039671, 0.16502672807955743, 0.16461248746415458]",True,True,darker,True,0.405660166871,right,left,"(0, 0)","(0, 0)","(0, 0)","(1, 1)","(0, 0)","(0, 0)","(0, 0)","(1, 1)"
empty,6,9.65426950715,0.763024176756,0.06,none_d,True,3.31188862491,right,3.5105321249,True,"[0.54423212562926748, 0.54408561254632759, 0.54354822032781014]",False,False,lighter,True,0.430599458516,up,left,"(0, 0)","(0, 0)","(1, 0)","(0, 1)","(0, 0)","(0, 0)","(1, 0)","(0, 1)"
empty,7,9.11052607219,0.758160494157,0.12,none_r,False,,,3.52454049978,True,"[0.68389937635934506, 0.68374049313851581, 0.68315772875453318]",True,True,lighter,True,0.390276125167,left,right,"(0, 0)","(1, 1)","(0, 0)","(0, 0)","(0, 0)","(1, 1)","(0, 0)","(0, 0)"
empty,8,9.78829203791,0.754276941731,0.06,none_l,False,,,3.52440070827,True,"[0.52228458956666457, 0.52214002034705698, 0.52160975798348108]",True,True,darker,False,0.619410708547,right,left,"(0, 0)","(0, 0)","(0, 0)","(1, 1)","(0, 0)","(0, 0)","(0, 0)","(1, 1)"
interactor,9,9.49191778715,0.668658767266,-0.087,45_top_r,True,3.31452691648,,3.51408591657,True,"[-0.038070908458309849, -0.038165847755802562, -0.038514073584373754]",False,True,darker,True,0.493975541787,left,down,"(0, 0)","(1, 0)","(0, 1)","(0, 0)","(0, 0)","(0, 0)","(1, 1)","(0, 0)"
empty,10,9.56366383169,0.854537873769,-0.087,none_l,True,3.31066733343,left,3.51003604149,True,"[0.40602190969866769, 0.40588763770602765, 0.40539514432208801]",False,False,darker,True,0.470355166821,right,down,"(0, 0)","(0, 0)","(0, 1)","(1, 0)","(0, 0)","(0, 0)","(0, 1)","(1, 0)"
interactor,11,9.92571716253,0.706751751736,-0.087,135_top_u,False,,,3.53791245818,True,"[0.050387156160576874, 0.050284382252961279, 0.049907420024670301]",True,False,darker,True,0.553165083518,down,up,"(1, 1)","(0, 0)","(0, 0)","(0, 0)","(0, 1)","(1, 0)","(0, 0)","(0, 0)"
empty,12,9.40238582103,0.606240179992,0.12,none_l,True,3.31987049989,left,3.51710904157,True,"[0.30475439153427897, 0.30462908866759109, 0.30416949294982976]",False,False,darker,False,0.416498541832,right,down,"(0, 0)","(0, 0)","(0, 1)","(1, 0)","(0, 0)","(0, 0)","(0, 1)","(1, 0)"
interactor,13,9.34475952826,0.731091412218,-0.174,45_top_r,False,,,3.52362529142,True,"[-0.094362356799740588, -0.094452310440435894, -0.094782249484559267]",True,False,darker,True,0.471248791786,left,right,"(0, 0)","(1, 1)","(0, 0)","(0, 0)","(0, 0)","(0, 1)","(1, 0)","(0, 0)"
interactor,14,9.52256056207,0.60259180121,0.0,135_bottom_r,True,3.30951466667,,3.50892979163,True,"[0.010365514273972254, 0.010266285028587951, 0.0099023241914495408]",False,True,darker,,0.657161666546,left,up,"(0, 1)","(1, 0)","(0, 0)","(0, 0)","(1, 1)","(0, 0)","(0, 0)","(0, 0)"
interactor,15,9.4044436931,0.685381029003,0.06,45_top_u,False,,,3.52423933358,True,"[0.35151618230978232, 0.35138673781507013, 0.35091195110802875]",True,False,darker,False,0.444472958101,down,up,"(1, 1)","(0, 0)","(0, 0)","(0, 0)","(0, 1)","(0, 0)","(0, 0)","(1, 0)"
interactor,16,9.50315061913,0.793873695061,0.0,135_bottom_d,False,,,3.52327279141,True,"[0.47132076634212838, 0.47118071091882596, 0.47066700461265176]",True,False,lighter,,0.495457416633,up,down,"(0, 0)","(0, 0)","(1, 1)","(0, 0)","(0, 0)","(0, 0)","(0, 1)","(1, 0)"
interactor,17,9.92323692419,0.810103897299,-0.087,45_top_u,False,,,3.52379570832,True,"[0.29712146229231795, 0.29699683546376043, 0.29653971937187262]",True,False,darker,True,0.471274833195,down,up,"(1, 1)","(0, 0)","(0, 0)","(0, 0)","(0, 1)","(0, 0)","(0, 0)","(1, 0)"
empty,18,9.21183962108,0.768099443976,-0.174,none_r,False,,,3.52467883332,True,"[-0.009336304643922877, -0.0094337889260799335, -0.0097913494497358089]",True,True,darker,True,0.366518958239,left,right,"(0, 0)","(1, 1)","(0, 0)","(0, 0)","(0, 0)","(1, 1)","(0, 0)","(0, 0)"
interactor,19,9.51890674781,0.805200977684,-0.087,45_bottom_d,False,,,3.52669891668,True,"[0.28520556357294269, 0.28508199211928287, 0.28462874701451235]",True,False,darker,True,0.396398458397,up,down,"(0, 0)","(0, 0)","(1, 1)","(0, 0)","(0, 0)","(1, 0)","(0, 1)","(0, 0)"
empty,20,9.4870842267,0.724751376377,0.12,none_r,False,,,3.52632870828,True,"[0.5989991411871578, 0.59884777746435258, 0.5982925936871204]",True,True,darker,False,0.440147124929,left,right,"(0, 0)","(1, 1)","(0, 0)","(0, 0)","(0, 0)","(1, 1)","(0, 0)","(0, 0)"
interactor,21,9.60456018144,0.90398462077,0.06,135_bottom_d,True,3.32801275002,,3.52663787501,True,"[0.90566493619539767, 0.90548641150142939, 0.9048316045761704]",False,True,lighter,True,0.395718125161,up,left,"(0, 0)","(0, 0)","(1, 0)","(0, 1)","(0, 0)","(0, 0)","(0, 0)","(1, 1)"
empty,22,9.58775487101,0.769196687543,-0.087,none_u,True,3.3193101252,left,3.51938779186,True,"[0.19833125755473802, 0.19821538043986253, 0.19779035723655314]",False,False,darker,True,0.468161999946,down,left,"(1, 0)","(0, 0)","(0, 0)","(0, 1)","(1, 0)","(0, 0)","(0, 0)","(0, 1)"
interactor,23,9.44747234572,0.884831318139,0.12,135_bottom_d,False,,,3.52595020854,True,"[1.0, 1.0, 1.0]",True,False,darker,False,0.407606166555,up,down,"(0, 0)","(0, 0)","(1, 1)","(0, 0)","(0, 0)","(0, 0)","(0, 1)","(1, 0)"
empty,24,9.57383215276,0.63720451948,0.0,none_l,True,3.31330133323,left,3.51352958335,True,"[0.091376876795691286, 0.091270472484428211, 0.090880194375877243]",False,False,darker,,0.453697041608,right,down,"(0, 0)","(0, 0)","(0, 1)","(1, 0)","(0, 0)","(0, 0)","(0, 1)","(1, 0)"
interactor,25,9.44039800878,0.81591290595,0.0,135_bottom_d,True,3.31612637499,,3.51536191674,True,"[0.52638489828641521, 0.52623996590805611, 0.52570837152222949]",False,True,lighter,,0.394181416603,up,left,"(0, 0)","(0, 0)","(1, 0)","(0, 1)","(0, 0)","(0, 0)","(0, 0)","(1, 1)"
empty,26,9.60684737509,0.849239960539,0.0,none_r,True,3.30519474996,left,3.50394245819,True,"[0.61035762326871024, 0.61020525354064126, 0.60964637985811043]",False,False,lighter,,0.558102416806,left,up,"(0, 1)","(1, 0)","(0, 0)","(0, 0)","(0, 1)","(1, 0)","(0, 0)","(0, 0)"
empty,27,9.47887685902,0.684607532361,-0.174,none_d,True,3.31995720835,right,3.51976962504,True,"[-0.19916495757475194, -0.19924562899205245, -0.19954152196654362]",False,False,darker,True,0.405304666609,up,left,"(0, 0)","(0, 0)","(1, 0)","(0, 1)","(0, 0)","(0, 0)","(1, 0)","(0, 1)"
empty,28,9.13623584078,0.758430361355,0.12,none_r,True,3.3144863334,left,3.51509833336,True,"[0.68458850607536381, 0.68442956181925685, 0.68384657356527301]",False,False,lighter,True,0.392477874877,left,up,"(0, 1)","(1, 0)","(0, 0)","(0, 0)","(0, 1)","(1, 0)","(0, 0)","(0, 0)"
empty,29,9.79933313245,0.797174392055,0.0,none_d,True,3.31341891666,right,3.511019625,True,"[0.47954337553012283, 0.4794025918415401, 0.47888621434664702]",False,False,darker,,0.382058791583,up,left,"(0, 0)","(0, 0)","(1, 0)","(0, 1)","(0, 0)","(0, 0)","(1, 0)","(0, 1)"
interactor,30,9.68477966086,0.780980163922,0.12,45_bottom_d,False,,,3.52713987511,True,"[0.74235723692891042, 0.74219317617511082, 0.74159142122813759]",True,False,lighter,True,0.366463458166,up,down,"(0, 0)","(0, 0)","(1, 1)","(0, 0)","(0, 0)","(1, 0)","(0, 1)","(0, 0)"
empty,31,9.05354566972,0.57269489589,-0.087,none_r,False,,,3.53885670868,True,"[-0.25437171306455575, -0.25444749489482554, -0.25472545345712028]",True,True,x,,,left,right,"(0, 0)","(1, 1)","(0, 0)","(0, 0)","(0, 0)","(1, 1)","(0, 0)","(0, 0)"
empty,32,9.29355394162,0.682708758399,-0.174,none_u,True,3.31110154185,left,3.51097495854,True,"[-0.20339684089788046, -0.20347713750304564, -0.20377165571209044]",False,False,darker,True,0.418825541623,down,left,"(1, 0)","(0, 0)","(0, 0)","(0, 1)","(1, 0)","(0, 0)","(0, 0)","(0, 1)"
interactor,33,9.24344370686,0.808284416808,0.06,135_bottom_r,False,,,3.52587733325,True,"[0.6587164616318566, 0.65855980882743559, 0.65798522534031934]",True,False,lighter,True,0.382841916755,left,right,"(0, 0)","(1, 1)","(0, 0)","(0, 0)","(1, 0)","(0, 1)","(0, 0)","(0, 0)"
empty,34,9.82491320922,0.697498713526,0.0,none_d,True,3.3083692498,right,3.52255895804,True,"[0.23511672619629476, 0.23499759104263784, 0.23456061774822823]",False,False,darker,,0.456109500024,up,left,"(0, 0)","(0, 0)","(1, 0)","(0, 1)","(0, 0)","(0, 0)","(1, 0)","(0, 1)"
empty,35,9.42441688958,0.722637930114,-0.087,none_r,False,,,3.52326270822,True,"[0.087685978826849587, 0.087579901413386896, 0.0871908223263127]",True,True,darker,True,0.518779000035,left,right,"(0, 0)","(1, 1)","(0, 0)","(0, 0)","(0, 0)","(1, 1)","(0, 0)","(0, 0)"
empty,36,9.47126211209,0.600921104966,-0.174,none_d,False,,,3.53172345832,True,"[-0.38177557646651405, -0.38184007431038469, -0.38207664457913804]",True,True,darker,True,0.455270791659,up,down,"(0, 0)","(0, 0)","(1, 1)","(0, 0)","(0, 0)","(0, 0)","(1, 1)","(0, 0)"
empty,37,9.61578281587,0.821547042417,0.12,none_r,True,3.31156179169,left,3.51256679185,True,"[0.84719112964686771, 0.84701778389818716, 0.84638197271611237]",False,False,lighter,True,0.441055541392,left,up,"(0, 1)","(1, 0)","(0, 0)","(0, 0)","(0, 1)","(1, 0)","(0, 0)","(0, 0)"
interactor,38,9.73769480762,0.768149339579,0.06,45_top_u,True,3.32039249991,,3.52200250002,True,"[0.55711874314243515, 0.55697108870936018, 0.55642951015697362]",False,True,lighter,True,0.355448833201,down,left,"(1, 0)","(0, 0)","(0, 0)","(0, 1)","(0, 0)","(0, 0)","(0, 0)","(1, 1)"
interactor,39,8.90016435242,0.685005483183,-0.087,45_top_u,True,3.3108945,,3.51018387498,True,"[-0.00028318423324968922, -0.0003814703379331208, -0.0007419718493660854]",False,True,darker,True,0.445522583323,down,left,"(1, 0)","(0, 0)","(0, 0)","(0, 1)","(0, 0)","(0, 0)","(0, 0)","(1, 1)"
interactor,40,9.53199966417,0.758683676478,-0.174,135_top_u,True,3.3139801668,,3.51319950004,True,"[-0.031098192136200686, -0.031193748997666915, -0.031544239975992538]",False,True,darker,True,0.419421958504,down,right,"(1, 0)","(0, 1)","(0, 0)","(0, 0)","(0, 0)","(1, 1)","(0, 0)","(0, 0)"
interactor,41,9.53744341181,0.704857117101,-0.174,135_top_l,False,,,3.54030933324,True,"[-0.15379113723084181, -0.15387582734551752, -0.15418646041458206]",True,False,darker,True,0.368146458641,right,left,"(0, 0)","(0, 0)","(0, 0)","(1, 1)","(0, 0)","(0, 0)","(1, 0)","(0, 1)"
interactor,42,8.92509585702,0.791704029019,0.0,45_bottom_d,True,3.31313516665,,3.51198562491,True,"[0.46592040308438887, 0.46578082596389314, 0.46526887401440642]",False,True,darker,,0.354706041748,up,right,"(0, 0)","(0, 1)","(1, 0)","(0, 0)","(0, 0)","(1, 1)","(0, 0)","(0, 0)"
interactor,43,9.56044517953,0.718993946193,0.06,45_bottom_l,True,3.31294383341,,3.51120708347,True,"[0.43435917553056491, 0.43422239374494476, 0.43372069474474539]",False,True,lighter,True,0.444199499907,right,up,"(0, 1)","(0, 0)","(0, 0)","(1, 0)","(1, 1)","(0, 0)","(0, 0)","(0, 0)"
interactor,44,9.64829801966,0.553852261251,0.06,45_bottom_d,False,,,3.51320162485,True,"[0.0365962957852346, 0.036494743315310885, 0.036122261172334413]",True,False,darker,False,0.451924249995,up,down,"(0, 0)","(0, 0)","(1, 1)","(0, 0)","(0, 0)","(1, 0)","(0, 1)","(0, 0)"
empty,45,9.32325690261,0.899116703841,-0.174,none_r,True,3.30857179151,left,3.50649433327,True,"[0.30201918183844612, 0.30189412122555059, 0.30143541406531527]",False,False,darker,True,0.363377208123,left,up,"(0, 1)","(1, 0)","(0, 0)","(0, 0)","(0, 1)","(1, 0)","(0, 0)","(0, 0)"
empty,46,9.63065554193,0.781029455657,0.0,none_l,False,,,3.51181475003,True,"[0.43940508093831387, 0.43926785224373255, 0.43876451403567462]",True,True,darker,,0.438351208344,right,left,"(0, 0)","(0, 0)","(0, 0)","(1, 1)","(0, 0)","(0, 0)","(0, 0)","(1, 1)"
interactor,47,9.56914967271,0.706815218891,-0.087,45_bottom_l,False,,,3.51888429164,True,"[0.050535698327691669, 0.05043291126389815, 0.050055900780345386]",True,False,darker,True,0.338454333367,right,left,"(0, 0)","(0, 0)","(0, 0)","(1, 1)","(1, 0)","(0, 0)","(0, 0)","(0, 1)"
empty,48,9.22610760043,0.751069921347,0.06,none_d,False,,,3.51259708335,True,"[0.51425263200145288, 0.51410877416136946, 0.51358112105161546]",True,True,darker,False,0.362485750113,up,down,"(0, 0)","(0, 0)","(1, 1)","(0, 0)","(0, 0)","(0, 0)","(1, 1)","(0, 0)"
empty,49,9.31715545812,0.76835851608,0.06,none_u,True,3.30254816683,left,3.49856841681,True,"[0.55764511721961374, 0.55749741616630333, 0.55695566661655316]",False,False,lighter,True,0.499367833138,down,left,"(1, 0)","(0, 0)","(0, 0)","(0, 1)","(1, 0)","(0, 0)","(0, 0)","(0, 1)"
empty,50,9.54141451663,0.625739687278,0.06,none_l,False,,,3.51191433356,True,"[0.20683031425999343, 0.20671368439525994, 0.2062859001967623]",True,True,darker,False,0.451805666555,right,left,"(0, 0)","(0, 0)","(0, 0)","(1, 1)","(0, 0)","(0, 0)","(0, 0)","(1, 1)"
interactor,51,9.60965006653,0.767232856603,0.12,45_top_r,True,3.31201670854,,3.50830516685,True,"[0.70709540460552067, 0.70693446694411066, 0.70634416712124559]",False,True,lighter,True,0.413673624862,left,down,"(0, 0)","(1, 0)","(0, 1)","(0, 0)","(0, 0)","(0, 0)","(1, 1)","(0, 0)"
interactor,52,9.82487903584,0.684850986089,-0.174,45_top_u,False,,,3.53226779168,True,"[-0.19862207633183937, -0.19870279583138895, -0.19899886516574672]",True,False,darker,True,0.404479250079,down,up,"(1, 1)","(0, 0)","(0, 0)","(0, 0)","(0, 1)","(0, 0)","(0, 0)","(1, 0)"
interactor,53,9.89188870533,0.697759041123,0.0,135_top_u,False,,,3.51791291684,True,"[0.2357443032335913, 0.2356251124962907, 0.23518793532782367]",True,False,lighter,,0.477424958255,down,up,"(1, 1)","(0, 0)","(0, 0)","(0, 0)","(0, 1)","(1, 0)","(0, 0)","(0, 0)"
empty,54,9.73483235372,0.752041813972,0.0,none_d,False,,,3.51606408344,True,"[0.36785966028068873, 0.36772876826642698, 0.36724867223323354]",True,True,darker,,0.399208749877,up,down,"(0, 0)","(0, 0)","(1, 1)","(0, 0)","(0, 0)","(0, 0)","(1, 1)","(0, 0)"
interactor,55,9.6964801858,0.856986836127,-0.087,135_top_l,False,,,3.50936545827,True,"[0.41207073198028432, 0.41193592425170666, 0.41144146585331964]",True,False,darker,True,0.437982124975,right,left,"(0, 0)","(0, 0)","(0, 0)","(1, 1)","(0, 0)","(0, 0)","(1, 0)","(0, 1)"
empty,56,9.55348506489,0.660777165544,0.06,none_u,False,,,3.51189950015,True,"[0.29146412124562526, 0.29133999548004752, 0.29088471722639797]",True,True,lighter,True,0.48823300004,down,up,"(1, 1)","(0, 0)","(0, 0)","(0, 0)","(1, 1)","(0, 0)","(0, 0)","(0, 0)"
interactor,57,9.38814894972,0.717000437547,0.12,45_top_r,False,,,3.51579724997,True,"[0.57942071757960512, 0.57927108789107407, 0.57872226434124507]",True,False,lighter,True,0.540348875104,left,right,"(0, 0)","(1, 1)","(0, 0)","(0, 0)","(0, 0)","(0, 1)","(1, 0)","(0, 0)"
empty,58,9.79086174041,0.727304375589,-0.087,none_r,True,3.30229987483,left,3.49878520845,True,"[0.098686847925574472, 0.098579796180141344, 0.098187143361570639]",False,False,lighter,False,0.440343041439,left,up,"(0, 1)","(1, 0)","(0, 0)","(0, 0)","(0, 1)","(1, 0)","(0, 0)","(0, 0)"
empty,59,9.03340491132,0.809510087275,0.0,none_l,True,3.3032405416,left,3.50073462492,True,"[0.51034890685102963, 0.51020539475855742, 0.50967900980911041]",False,False,lighter,,0.436816583388,right,down,"(0, 0)","(0, 0)","(0, 1)","(1, 0)","(0, 0)","(0, 0)","(0, 1)","(1, 0)"
empty,60,9.48228588878,0.695038248607,-0.087,none_l,False,,,3.50749049988,True,"[0.023037629833850159, 0.0229372782364754, 0.022569200748361329]",True,True,darker,True,0.38789687492,right,left,"(0, 0)","(0, 0)","(0, 0)","(1, 1)","(0, 0)","(0, 0)","(0, 0)","(1, 1)"
interactor,61,9.62297434797,0.826573588336,0.06,135_top_l,True,3.31030720822,,3.50603800011,True,"[0.70540779514625673, 0.70524700695411546, 0.7046572553663959]",False,True,darker,False,0.414973750012,right,down,"(0, 0)","(0, 0)","(0, 1)","(1, 0)","(0, 0)","(0, 0)","(1, 1)","(0, 0)"
empty,62,9.41856973673,0.678132601887,0.0,none_u,False,,,3.51010216679,True,"[0.18859578655858944, 0.18848077170109945, 0.1880589111533062]",True,True,darker,,0.502537166467,down,up,"(1, 1)","(0, 0)","(0, 0)","(0, 0)","(1, 1)","(0, 0)","(0, 0)","(0, 0)"
interactor,63,9.27092716593,0.856541503806,-0.174,135_bottom_d,True,3.30354749993,,3.5009254585,True,"[0.19915792969217794, 0.19904197936007906, 0.19861668760487317]",False,True,darker,True,0.376016958151,up,left,"(0, 0)","(0, 0)","(1, 0)","(0, 1)","(0, 0)","(0, 0)","(0, 0)","(1, 1)"
empty,64,9.68610132724,0.730891647862,0.06,none_r,True,3.3060055417,left,3.50382108334,True,"[0.46389931353874569, 0.46375991542339556, 0.46324862004306699]",False,False,darker,False,0.449782875134,left,up,"(0, 1)","(1, 0)","(0, 0)","(0, 0)","(0, 1)","(1, 0)","(0, 0)","(0, 0)"
interactor,65,9.61714071407,0.750410140538,0.0,135_top_u,True,3.30482854182,,3.50068887509,True,"[0.36385268559812678, 0.36372214847614526, 0.36324335414479991]",False,True,lighter,,0.377361416584,down,right,"(1, 0)","(0, 1)","(0, 0)","(0, 0)","(0, 0)","(1, 1)","(0, 0)","(0, 0)"
empty,66,10.0007287964,0.647959175662,0.0,none_r,False,,,3.50593829155,True,"[0.11677598195222383, 0.11666732807686531, 0.11626879884003594]",True,True,darker,,0.453950749943,left,right,"(0, 0)","(1, 1)","(0, 0)","(0, 0)","(0, 0)","(1, 1)","(0, 0)","(0, 0)"
empty,67,9.64311647912,0.855638680382,0.12,none_d,True,3.30503345816,right,3.50600575004,True,"[0.93617122075279346, 0.93598999415881567, 0.93532527699201062]",False,False,lighter,True,0.405234416714,up,left,"(0, 0)","(0, 0)","(1, 0)","(0, 1)","(0, 0)","(0, 0)","(1, 0)","(0, 1)"
interactor,68,9.97299533379,0.737174974239,0.06,45_top_r,True,3.31088091666,,3.52232929156,True,"[0.47954482660214337, 0.47940404278504167, 0.47888766481875455]",False,True,lighter,True,0.444053708343,left,down,"(0, 0)","(1, 0)","(0, 1)","(0, 0)","(0, 0)","(0, 0)","(1, 1)","(0, 0)"
empty,69,9.57233020813,0.886676519485,0.06,none_u,True,3.31429641671,right,3.51339179184,True,"[0.86052848028981321, 0.86035395327017872, 0.85971380932951491]",False,False,lighter,True,0.40491883317,down,right,"(1, 0)","(0, 1)","(0, 0)","(0, 0)","(1, 0)","(0, 1)","(0, 0)","(0, 0)"
empty,70,9.55557617222,0.60668493666,0.12,none_u,True,3.31646691682,right,3.51703454182,True,"[0.30583748640234409, 0.30571208760742152, 0.30525214003652779]",False,False,lighter,True,0.415365083376,down,right,"(1, 0)","(0, 1)","(0, 0)","(0, 0)","(1, 0)","(0, 1)","(0, 0)","(0, 0)"
interactor,71,9.85951593396,0.667804574152,-0.087,135_top_l,True,3.32315170835,,3.53580358322,True,"[-0.04003826964277224, -0.040133034693767722, -0.04048062140732267]",False,True,darker,True,0.384911916917,right,down,"(0, 0)","(0, 0)","(0, 1)","(1, 0)","(0, 0)","(0, 0)","(1, 1)","(0, 0)"
empty,72,9.28557749664,0.8612028617,0.06,none_u,False,,,3.52688816679,True,"[0.7944729449821939, 0.79430426841121826, 0.79368558320667382]",True,True,lighter,True,0.376906708116,down,up,"(1, 1)","(0, 0)","(0, 0)","(0, 0)","(1, 1)","(0, 0)","(0, 0)","(0, 0)"
interactor,73,10.074106095,0.836612077569,-0.174,135_bottom_r,True,3.32419754169,,3.5358887082,True,"[0.15155123737716369, 0.15143950350486657, 0.1510296772128219]",False,True,darker,True,0.342471374897,left,up,"(0, 1)","(1, 0)","(0, 0)","(0, 0)","(1, 1)","(0, 0)","(0, 0)","(0, 0)"
interactor,74,9.40657675001,0.770765882294,0.12,135_top_l,True,3.31257362501,,3.51185008348,True,"[0.71614465962878326, 0.71598292048719925, 0.71538968093226196]",False,True,lighter,True,0.321361166658,right,down,"(0, 0)","(0, 0)","(0, 1)","(1, 0)","(0, 0)","(0, 0)","(1, 1)","(0, 0)"
empty,75,9.55732067175,0.579959068477,-0.174,none_d,False,,,3.52367008314,True,"[-0.42619303738698144, -0.42625360123692535, -0.42647574209308614]",True,True,lighter,False,0.329424958443,up,down,"(0, 0)","(0, 0)","(1, 1)","(0, 0)","(0, 0)","(0, 0)","(1, 1)","(0, 0)"
interactor,76,9.4288110866,0.660820193124,0.06,135_top_u,True,3.33160783327,,3.53082920844,True,"[0.29156869944083685, 0.29144456441291222, 0.29098925218609262]",False,True,lighter,True,0.378758041654,down,right,"(1, 0)","(0, 1)","(0, 0)","(0, 0)","(0, 0)","(1, 1)","(0, 0)","(0, 0)"
interactor,77,9.67206257976,0.955492297477,0.12,135_top_u,False,,,3.53003216675,True,"[1.0, 1.0, 1.0]",True,False,lighter,True,0.44831945817,down,up,"(1, 1)","(0, 0)","(0, 0)","(0, 0)","(0, 1)","(1, 0)","(0, 0)","(0, 0)"
empty,78,9.39727198368,0.725922260849,0.12,none_u,False,,,3.526927375,True,"[0.60196064440571107, 0.60180901838660539, 0.60125287253835524]",True,True,lighter,True,0.406047708355,down,up,"(1, 1)","(0, 0)","(0, 0)","(0, 0)","(1, 1)","(0, 0)","(0, 0)","(0, 0)"
empty,79,9.44795865355,0.729332505702,0.06,none_r,False,,,3.51878762501,True,"[0.46002184217230035, 0.45988278747929967, 0.4593727517304993]",True,True,lighter,True,0.316689624917,left,right,"(0, 0)","(1, 1)","(0, 0)","(0, 0)","(0, 0)","(1, 1)","(0, 0)","(0, 0)"
interactor,80,9.24659998805,0.80584400056,-0.087,135_bottom_r,False,,,3.53661587508,True,"[0.28676719030355891, 0.286643480538749, 0.28618972812545707]",True,False,darker,True,0.506111416733,left,right,"(0, 0)","(1, 1)","(0, 0)","(0, 0)","(1, 0)","(0, 1)","(0, 0)","(0, 0)"
interactor,81,9.82626267483,0.655114184758,0.06,45_top_r,False,,,3.53778787493,True,"[0.27771393770280373, 0.27759102977222727, 0.27714021838965652]",True,False,darker,False,0.632979291724,left,right,"(0, 0)","(1, 1)","(0, 0)","(0, 0)","(0, 0)","(0, 1)","(1, 0)","(0, 0)"
empty,82,9.49935789246,0.859086413708,-0.087,none_u,True,3.31208062521,right,3.51000537514,True,"[0.41726042149727927, 0.41712515412497875, 0.41662900980916895]",False,False,lighter,False,0.682986333501,down,right,"(1, 0)","(0, 1)","(0, 0)","(0, 0)","(1, 0)","(0, 1)","(0, 0)","(0, 0)"
empty,83,9.49645760611,0.868550448825,0.0,none_u,True,3.31655450002,left,3.51536775008,True,"[0.65939387967945495, 0.65923716687704204, 0.65866236332456651]",False,False,lighter,,0.557443416445,down,left,"(1, 0)","(0, 0)","(0, 0)","(0, 1)","(1, 0)","(0, 0)","(0, 0)","(0, 1)"
interactor,84,9.35519557389,0.903576784957,0.0,45_top_r,False,,,3.52486100001,True,"[0.74903274636738759, 0.74886809437282098, 0.74826417082642926]",True,False,lighter,,0.404340249952,left,right,"(0, 0)","(1, 1)","(0, 0)","(0, 0)","(0, 0)","(0, 1)","(1, 0)","(0, 0)"
empty,85,9.61030085807,0.707563167333,-0.087,none_d,False,,,3.52445645817,True,"[0.052286526104305509, 0.052183583972085001, 0.051806004716345555]",True,True,darker,True,0.429214916658,up,down,"(0, 0)","(0, 0)","(1, 1)","(0, 0)","(0, 0)","(0, 0)","(1, 1)","(0, 0)"
interactor,86,9.3992125131,0.831174789032,0.06,135_bottom_r,True,3.30978800007,,3.50927333324,True,"[0.71719258607200564, 0.71703075411700534, 0.71643717413371766]",False,True,lighter,True,0.30671666679,left,up,"(0, 1)","(1, 0)","(0, 0)","(0, 0)","(1, 1)","(0, 0)","(0, 0)","(0, 0)"
interactor,87,9.78746839397,0.744547199948,-0.087,45_bottom_l,True,3.31436349987,,3.51524554146,True,"[0.13950896175735994, 0.13939829445298901, 0.13899238020273819]",False,True,darker,True,0.43123941659,right,up,"(0, 1)","(0, 0)","(0, 0)","(1, 0)","(1, 1)","(0, 0)","(0, 0)","(0, 0)"
interactor,88,9.57336851112,0.776627550915,0.12,45_top_u,False,,,3.52532816678,True,"[0.73117813463152714, 0.7310150639955697, 0.73041694068075502]",True,False,lighter,True,0.464042833308,down,up,"(1, 1)","(0, 0)","(0, 0)","(0, 0)","(0, 1)","(0, 0)","(0, 0)","(1, 0)"
interactor,89,9.91968824825,0.783448124742,-0.087,135_bottom_d,True,3.3079680833,,3.51673120819,True,"[0.23258464558118264, 0.23246573469045217, 0.23202958396525641]",False,True,darker,True,0.36300133355,up,left,"(0, 0)","(0, 0)","(1, 0)","(0, 1)","(0, 0)","(0, 0)","(0, 0)","(1, 1)"
empty,90,9.38032233594,0.741579939597,-0.087,none_l,True,3.29794874997,left,3.49402529141,True,"[0.13246474376539452, 0.13235470035780117, 0.13195107448526722]",False,False,darker,True,0.400240166811,right,down,"(0, 0)","(0, 0)","(0, 1)","(1, 0)","(0, 0)","(0, 0)","(0, 1)","(1, 0)"
empty,91,9.59178439198,0.86736451814,0.12,none_d,False,,,3.52144016651,True,"[0.96695747643559948, 0.96677352314494658, 0.96609880478545329]",True,True,darker,False,0.374680750072,up,down,"(0, 0)","(0, 0)","(1, 1)","(0, 0)","(0, 0)","(0, 0)","(1, 1)","(0, 0)"
interactor,92,9.61275807007,0.848348806287,-0.087,45_bottom_d,True,3.30340241664,,3.50081274984,True,"[0.39075672570306952, 0.3906238057269551, 0.39013627137564821]",False,True,lighter,False,0.338512958493,up,right,"(0, 0)","(0, 1)","(1, 0)","(0, 0)","(0, 0)","(1, 1)","(0, 0)","(0, 0)"
empty,93,9.47627248697,0.628237173624,-0.174,none_u,True,3.30398966651,right,3.50191479153,True,"[-0.32307371747995872, -0.32314341446740902, -0.32339905456423745]",False,False,darker,True,0.418166999938,down,right,"(1, 0)","(0, 1)","(0, 0)","(0, 0)","(1, 0)","(0, 1)","(0, 0)","(0, 0)"
empty,94,9.60400787398,0.784613759283,0.06,none_d,True,3.31132675009,right,3.5091849165,True,"[0.59865113538486159, 0.59849980248445589, 0.59794473176004548]",False,False,lighter,True,0.426394291688,up,left,"(0, 0)","(0, 0)","(1, 0)","(0, 1)","(0, 0)","(0, 0)","(1, 0)","(0, 1)"
interactor,95,9.47196750864,0.679014914453,0.06,135_top_u,False,,,3.51642366638,True,"[0.33592981658580157, 0.33580175255424072, 0.3353320292186126]",True,False,darker,False,0.391336750006,down,up,"(1, 1)","(0, 0)","(0, 0)","(0, 0)","(0, 1)","(1, 0)","(0, 0)","(0, 0)"
interactor,96,9.31980602704,0.624211442197,0.12,45_bottom_l,False,,,3.51537341671,True,"[0.34865014036115571, 0.34852094970787006, 0.34804709406039147]",True,False,lighter,True,0.438377625076,right,left,"(0, 0)","(0, 0)","(0, 0)","(1, 1)","(1, 0)","(0, 0)","(0, 0)","(0, 1)"
empty,97,9.66576977743,0.824412313042,-0.174,none_l,False,,,3.50812695827,True,"[0.12258435882752794, 0.1224751905121515, 0.12207477437173386]",True,True,darker,True,0.336941083195,right,left,"(0, 0)","(0, 0)","(0, 0)","(1, 1)","(0, 0)","(0, 0)","(0, 0)","(1, 1)"
empty,98,9.83246010381,0.730300243069,-0.087,none_u,False,,,3.51182558364,True,"[0.10576000929193308, 0.10565233108624517, 0.10525738048744171]",True,True,darker,True,0.501777000027,down,up,"(1, 1)","(0, 0)","(0, 0)","(0, 0)","(1, 1)","(0, 0)","(0, 0)","(0, 0)"
interactor,99,9.47980927651,0.840182109156,-0.174,135_bottom_r,False,,,3.53383712494,True,"[0.16005320827711467, 0.15994072139685223, 0.1595281331629177]",True,False,darker,True,0.440441291779,left,right,"(0, 0)","(1, 1)","(0, 0)","(0, 0)","(1, 0)","(0, 1)","(0, 0)","(0, 0)"
interactor,100,9.45143683232,0.717191738512,0.12,45_bottom_d,True,3.30768166669,,3.50435712491,True,"[0.57990338914033135, 0.57975371670223952, 0.5792047363522026]",False,True,lighter,True,0.30457995832,up,right,"(0, 0)","(0, 1)","(1, 0)","(0, 0)","(0, 0)","(1, 1)","(0, 0)","(0, 0)"
