,trial_type,trial,ball_speed,ball_start_color,ball_color_change,interactor,bounce,bounce_moment,random_bounce_direction,target_onset,ball_change,target_color,abs_congruent,sim_congruent,response,accuracy,rt,start_pos,end_pos,abs_rfup,abs_rfright,abs_rfdown,abs_rfleft,sim_rfup,sim_rfright,sim_rfdown,sim_rfleft
0,interactor,1,8.701159971808218,0.13195576781956866,-0.15,45_top_r,False,,,4.195981400000164,True,"[-0.01804423218043133, -0.01804423218043133, -0.01804423218043133]",True,False,darker,True,0.7019173000007868,left,right,"(0, 0)","(1, 1)","(0, 0)","(0, 0)","(0, 0)","(0, 1)","(1, 0)","(0, 0)"
1,interactor,2,8.935919926192822,-0.07502284118727279,-0.15,45_top_r,True,3.8839331999770366,,4.167369199974928,True,"[-0.22502284118727278, -0.22502284118727278, -0.22502284118727278]",False,True,darker,True,0.6009095000044908,left,down,"(0, 0)","(1, 0)","(0, 1)","(0, 0)","(0, 0)","(0, 0)","(1, 1)","(0, 0)"
2,interactor,3,9.181164078581514,0.1754683666816086,-0.15,135_top_l,True,3.883468299987726,,4.165749100007815,True,"[0.025468366681608595, 0.025468366681608595, 0.025468366681608595]",False,True,darker,True,0.6837854000041261,right,down,"(0, 0)","(0, 0)","(0, 1)","(1, 0)","(0, 0)","(0, 0)","(1, 1)","(0, 0)"
3,empty,4,8.833225731570678,0.09453205825676511,0.3,none_u,True,3.8829507999762427,left,4.167075899982592,True,"[0.3945320582567651, 0.3945320582567651, 0.3945320582567651]",False,False,lighter,True,0.7502863999980036,down,left,"(1, 0)","(0, 0)","(0, 0)","(0, 1)","(1, 0)","(0, 0)","(0, 0)","(0, 1)"
4,empty,5,8.790901752982808,0.1013664212602764,0.15,none_u,True,3.8821674000064377,left,4.166085600008955,True,"[0.2513664212602764, 0.2513664212602764, 0.2513664212602764]",False,False,lighter,True,0.6169970000046305,down,left,"(1, 0)","(0, 0)","(0, 0)","(0, 1)","(1, 0)","(0, 0)","(0, 0)","(0, 1)"
5,interactor,6,9.20316595513097,-0.013358627834052256,-0.15,45_top_u,False,,,4.1828068000031635,True,"[-0.16335862783405225, -0.16335862783405225, -0.16335862783405225]",True,False,darker,True,0.5835258000006434,down,up,"(1, 1)","(0, 0)","(0, 0)","(0, 0)","(0, 1)","(0, 0)","(0, 0)","(1, 0)"
6,empty,7,8.92076753618708,0.028272302724266854,0.0,none_d,True,3.8823896999820136,right,4.1657293000025675,True,"[0.028272302724266854, 0.028272302724266854, 0.028272302724266854]",False,False,lighter,,0.5502623999782372,up,left,"(0, 0)","(0, 0)","(1, 0)","(0, 1)","(0, 0)","(0, 0)","(1, 0)","(0, 1)"
7,interactor,8,9.266872092456648,0.016777278788051325,0.0,45_bottom_l,True,3.8833350999921095,,4.166342100012116,True,"[0.016777278788051325, 0.016777278788051325, 0.016777278788051325]",False,True,darker,,0.5172860999882687,right,up,"(0, 1)","(0, 0)","(0, 0)","(1, 0)","(1, 1)","(0, 0)","(0, 0)","(0, 0)"
8,empty,9,9.082936659195655,0.002982104624282278,0.3,none_u,False,,,4.183375699998578,True,"[0.30298210462428227, 0.30298210462428227, 0.30298210462428227]",True,True,lighter,True,0.5655620000034105,down,up,"(1, 1)","(0, 0)","(0, 0)","(0, 0)","(1, 1)","(0, 0)","(0, 0)","(0, 0)"
9,interactor,10,9.016833908461134,0.2816236417388877,-0.15,135_top_u,True,3.8757384000055026,,4.158989999996265,True,"[0.13162364173888771, 0.13162364173888771, 0.13162364173888771]",False,True,lighter,False,0.48516820001532324,down,right,"(1, 0)","(0, 1)","(0, 0)","(0, 0)","(0, 0)","(1, 1)","(0, 0)","(0, 0)"
10,empty,11,9.115270964374101,0.16012115224316414,-0.15,none_r,False,,,4.174167699995451,True,"[0.01012115224316415, 0.01012115224316415, 0.01012115224316415]",True,True,darker,True,0.7166675000044052,left,right,"(0, 0)","(1, 1)","(0, 0)","(0, 0)","(0, 0)","(1, 1)","(0, 0)","(0, 0)"
11,empty,12,9.134336524132504,0.26459079121368484,-0.15,none_l,True,3.8759948999795597,right,4.159075299976394,True,"[0.11459079121368484, 0.11459079121368484, 0.11459079121368484]",False,False,darker,True,0.684158500022022,right,up,"(0, 1)","(0, 0)","(0, 0)","(1, 0)","(0, 1)","(0, 0)","(0, 0)","(1, 0)"
12,empty,13,8.67912257283334,0.2747211707035003,-0.3,none_r,False,,,4.174546900001587,True,"[-0.025278829296499716, -0.025278829296499716, -0.025278829296499716]",True,True,darker,True,0.5854002000123728,left,right,"(0, 0)","(1, 1)","(0, 0)","(0, 0)","(0, 0)","(1, 1)","(0, 0)","(0, 0)"
13,empty,14,8.695462564944044,0.10257145516546382,0.0,none_d,False,,,4.175363699992886,True,"[0.10257145516546382, 0.10257145516546382, 0.10257145516546382]",True,True,darker,,0.7494686999998521,up,down,"(0, 0)","(0, 0)","(1, 1)","(0, 0)","(0, 0)","(0, 0)","(1, 1)","(0, 0)"
14,interactor,15,8.4312516607972,0.15673248460705974,0.3,135_bottom_d,True,3.8758232000109274,,4.158122599998023,True,"[0.45673248460705973, 0.45673248460705973, 0.45673248460705973]",False,True,lighter,True,0.5680510000092909,up,left,"(0, 0)","(0, 0)","(1, 0)","(0, 1)","(0, 0)","(0, 0)","(0, 0)","(1, 1)"
15,interactor,16,9.409204552764903,0.10888923792973308,0.3,135_bottom_r,False,,,4.173902899987297,True,"[0.4088892379297331, 0.4088892379297331, 0.4088892379297331]",True,False,lighter,True,0.41663920000428334,left,right,"(0, 0)","(1, 1)","(0, 0)","(0, 0)","(1, 0)","(0, 1)","(0, 0)","(0, 0)"
16,empty,17,9.046852735549983,-0.1304553881847861,0.3,none_l,False,,,4.175139899976784,True,"[0.16954461181521388, 0.16954461181521388, 0.16954461181521388]",True,True,lighter,True,0.7012347000127193,right,left,"(0, 0)","(0, 0)","(0, 0)","(1, 1)","(0, 0)","(0, 0)","(0, 0)","(1, 1)"
17,interactor,18,8.579820877365108,0.08744234401148133,0.3,45_bottom_d,False,,,4.175504500017269,True,"[0.3874423440114813, 0.3874423440114813, 0.3874423440114813]",True,False,darker,False,0.9009000999794807,up,down,"(0, 0)","(0, 0)","(1, 1)","(0, 0)","(0, 0)","(1, 0)","(0, 1)","(0, 0)"
18,interactor,19,9.374383373422173,-0.10589725934445346,-0.3,45_bottom_d,False,,,4.174418200011132,True,"[-0.4058972593444534, -0.4058972593444534, -0.4058972593444534]",True,False,darker,True,0.5836840999836568,up,down,"(0, 0)","(0, 0)","(1, 1)","(0, 0)","(0, 0)","(1, 0)","(0, 1)","(0, 0)"
19,empty,20,9.142732850441735,-0.025079413300218317,0.15,none_u,True,3.874902599985944,right,4.157692400011001,True,"[0.12492058669978168, 0.12492058669978168, 0.12492058669978168]",False,False,lighter,True,0.6506897999788634,down,right,"(1, 0)","(0, 1)","(0, 0)","(0, 0)","(1, 0)","(0, 1)","(0, 0)","(0, 0)"
