trial,ball_speed,interactor,bounce,bounce_moment,random_bounce_direction,target_onset,speed_change,ball_change,abs_congruent,sim_congruent,response,accuracy,rt,start_pos,end_pos,abs_rfup,abs_rfright,abs_rfdown,abs_rfleft,sim_rfup,sim_rfright,sim_rfdown,sim_rfleft
1,8.0,135_bottom_d,True,3.710237874998711,,,,False,False,True,,,,up,left,"(0, 0)","(0, 0)","(1, 0)","(0, 1)","(0, 0)","(0, 0)","(0, 0)","(1, 1)"
2,8.0,135_bottom_d,False,,,3.7245342500973493,slower,True,True,False,,False,,up,down,"(0, 0)","(0, 0)","(1, 1)","(0, 0)","(0, 0)","(0, 0)","(0, 1)","(1, 0)"
3,8.0,none_r,True,,left,,,False,False,False,,,,left,up,"(0, 1)","(1, 0)","(0, 0)","(0, 0)","(0, 1)","(1, 0)","(0, 0)","(0, 0)"
4,7.5,none_u,False,,,3.719938708236441,slower,True,True,True,,False,,down,up,"(1, 1)","(0, 0)","(0, 0)","(0, 0)","(1, 1)","(0, 0)","(0, 0)","(0, 0)"
5,8.5,135_top_l,True,3.6170642918441445,,,,False,False,True,,,,right,down,"(0, 0)","(0, 0)","(0, 1)","(1, 0)","(0, 0)","(0, 0)","(1, 1)","(0, 0)"
6,8.0,none_d,True,,left,3.7190751667367294,slower,True,False,False,,False,,up,right,"(0, 0)","(0, 1)","(1, 0)","(0, 0)","(0, 0)","(0, 1)","(1, 0)","(0, 0)"
7,8.5,45_top_u,True,3.614451958332211,,,,False,False,True,,,,down,left,"(1, 0)","(0, 0)","(0, 0)","(0, 1)","(0, 0)","(0, 0)","(0, 0)","(1, 1)"
8,7.5,none_d,True,,right,3.723788916715421,faster,True,False,False,,False,,up,left,"(0, 0)","(0, 0)","(1, 0)","(0, 1)","(0, 0)","(0, 0)","(1, 0)","(0, 1)"
9,8.5,45_top_r,False,,,3.7204682916635647,slower,True,True,False,right,True,1.5730652083875611,left,right,"(0, 0)","(1, 1)","(0, 0)","(0, 0)","(0, 0)","(0, 1)","(1, 0)","(0, 0)"
10,7.5,none_r,False,,,3.726320458459668,slower,True,True,True,,False,,left,right,"(0, 0)","(1, 1)","(0, 0)","(0, 0)","(0, 0)","(1, 1)","(0, 0)","(0, 0)"
11,7.5,45_top_u,False,,,3.724758749944158,slower,True,True,False,,False,,down,up,"(1, 1)","(0, 0)","(0, 0)","(0, 0)","(0, 1)","(0, 0)","(0, 0)","(1, 0)"
12,8.0,135_bottom_r,False,,,3.725986291654408,faster,True,True,False,,False,,left,right,"(0, 0)","(1, 1)","(0, 0)","(0, 0)","(1, 0)","(0, 1)","(0, 0)","(0, 0)"
13,8.5,none_l,True,,left,,,False,False,False,,,,right,down,"(0, 0)","(0, 0)","(0, 1)","(1, 0)","(0, 0)","(0, 0)","(0, 1)","(1, 0)"
14,7.5,45_top_u,False,,,,,False,True,False,,,,down,up,"(1, 1)","(0, 0)","(0, 0)","(0, 0)","(0, 1)","(0, 0)","(0, 0)","(1, 0)"
15,8.0,45_bottom_l,True,3.6270785415545106,,,,False,False,True,,,,right,up,"(0, 1)","(0, 0)","(0, 0)","(1, 0)","(1, 1)","(0, 0)","(0, 0)","(0, 0)"
16,7.5,45_bottom_l,True,3.616048750001937,,3.721791625022888,faster,True,False,True,up,True,1.1694765833672136,right,up,"(0, 1)","(0, 0)","(0, 0)","(1, 0)","(1, 1)","(0, 0)","(0, 0)","(0, 0)"
17,8.0,135_top_l,True,3.610082541592419,,3.717431249911897,faster,True,False,True,,False,,right,down,"(0, 0)","(0, 0)","(0, 1)","(1, 0)","(0, 0)","(0, 0)","(1, 1)","(0, 0)"
18,8.5,45_bottom_d,False,,,3.716572666540742,slower,True,True,False,,False,,up,down,"(0, 0)","(0, 0)","(1, 1)","(0, 0)","(0, 0)","(1, 0)","(0, 1)","(0, 0)"
19,8.5,none_u,True,,right,3.7158167500747368,slower,True,False,False,,False,,down,right,"(1, 0)","(0, 1)","(0, 0)","(0, 0)","(1, 0)","(0, 1)","(0, 0)","(0, 0)"
20,8.5,135_top_l,False,,,,,False,True,False,,,,right,left,"(0, 0)","(0, 0)","(0, 0)","(1, 1)","(0, 0)","(0, 0)","(1, 0)","(0, 1)"
21,8.0,45_top_r,False,,,3.7166662915842608,slower,True,True,False,right,True,1.1007140417350456,left,right,"(0, 0)","(1, 1)","(0, 0)","(0, 0)","(0, 0)","(0, 1)","(1, 0)","(0, 0)"
22,7.5,none_u,True,,left,,,False,False,False,,,,down,left,"(1, 0)","(0, 0)","(0, 0)","(0, 1)","(1, 0)","(0, 0)","(0, 0)","(0, 1)"
23,8.5,45_top_u,False,,,3.734841875033453,faster,True,True,False,,False,,down,up,"(1, 1)","(0, 0)","(0, 0)","(0, 0)","(0, 1)","(0, 0)","(0, 0)","(1, 0)"
24,7.5,135_bottom_r,True,3.6205270832870156,,,,False,False,True,,,,left,up,"(0, 1)","(1, 0)","(0, 0)","(0, 0)","(1, 1)","(0, 0)","(0, 0)","(0, 0)"
25,8.5,none_l,False,,,,,False,True,True,,,,right,left,"(0, 0)","(0, 0)","(0, 0)","(1, 1)","(0, 0)","(0, 0)","(0, 0)","(1, 1)"
26,8.0,none_d,True,,right,,,False,False,False,,,,up,left,"(0, 0)","(0, 0)","(1, 0)","(0, 1)","(0, 0)","(0, 0)","(1, 0)","(0, 1)"
27,7.5,none_l,False,,,3.723421416594647,slower,True,True,True,left,True,1.1446207916596904,right,left,"(0, 0)","(0, 0)","(0, 0)","(1, 1)","(0, 0)","(0, 0)","(0, 0)","(1, 1)"
28,8.5,135_bottom_d,True,3.6276556667871773,,,,False,False,True,,,,up,left,"(0, 0)","(0, 0)","(1, 0)","(0, 1)","(0, 0)","(0, 0)","(0, 0)","(1, 1)"
29,7.5,45_top_r,False,,,3.7178291666787118,faster,True,True,False,right,True,1.3129632917698473,left,right,"(0, 0)","(1, 1)","(0, 0)","(0, 0)","(0, 0)","(0, 1)","(1, 0)","(0, 0)"
30,7.5,45_top_r,True,3.6192997499601915,,3.7256453749723732,faster,True,False,True,,False,,left,down,"(0, 0)","(1, 0)","(0, 1)","(0, 0)","(0, 0)","(0, 0)","(1, 1)","(0, 0)"
31,8.5,45_bottom_d,False,,,,,False,True,False,,,,up,down,"(0, 0)","(0, 0)","(1, 1)","(0, 0)","(0, 0)","(1, 0)","(0, 1)","(0, 0)"
32,8.5,none_u,True,,left,,,False,False,False,,,,down,left,"(1, 0)","(0, 0)","(0, 0)","(0, 1)","(1, 0)","(0, 0)","(0, 0)","(0, 1)"
33,8.0,45_bottom_d,False,,,3.726270041661337,slower,True,True,False,down,True,1.0615449167089537,up,down,"(0, 0)","(0, 0)","(1, 1)","(0, 0)","(0, 0)","(1, 0)","(0, 1)","(0, 0)"
34,7.5,135_bottom_d,True,3.619179958361201,,3.723873958340846,slower,True,False,True,left,True,0.9734042499912903,up,left,"(0, 0)","(0, 0)","(1, 0)","(0, 1)","(0, 0)","(0, 0)","(0, 0)","(1, 1)"
35,7.5,45_bottom_l,True,3.616311499965377,,,,False,False,True,,,,right,up,"(0, 1)","(0, 0)","(0, 0)","(1, 0)","(1, 1)","(0, 0)","(0, 0)","(0, 0)"
36,8.5,45_bottom_l,False,,,3.7394125417340547,faster,True,True,False,,False,,right,left,"(0, 0)","(0, 0)","(0, 0)","(1, 1)","(1, 0)","(0, 0)","(0, 0)","(0, 1)"
37,8.0,none_d,True,,right,,,False,False,False,,,,up,left,"(0, 0)","(0, 0)","(1, 0)","(0, 1)","(0, 0)","(0, 0)","(1, 0)","(0, 1)"
38,8.5,none_l,False,,,3.72366575000342,slower,True,True,True,,False,,right,left,"(0, 0)","(0, 0)","(0, 0)","(1, 1)","(0, 0)","(0, 0)","(0, 0)","(1, 1)"
39,8.0,45_top_r,False,,,3.7310030832886696,faster,True,True,False,right,True,1.0393454583827406,left,right,"(0, 0)","(1, 1)","(0, 0)","(0, 0)","(0, 0)","(0, 1)","(1, 0)","(0, 0)"
40,8.5,45_top_r,False,,,3.7283962500514463,faster,True,True,False,right,True,1.0806612082524225,left,right,"(0, 0)","(1, 1)","(0, 0)","(0, 0)","(0, 0)","(0, 1)","(1, 0)","(0, 0)"
41,8.0,135_top_l,False,,,,,False,True,False,,,,right,left,"(0, 0)","(0, 0)","(0, 0)","(1, 1)","(0, 0)","(0, 0)","(1, 0)","(0, 1)"
42,7.5,none_r,True,,right,3.7210772916441783,slower,True,False,False,,False,,left,down,"(0, 0)","(1, 0)","(0, 1)","(0, 0)","(0, 0)","(1, 0)","(0, 1)","(0, 0)"
43,8.0,135_bottom_r,False,,,3.7202022917335853,slower,True,True,False,right,True,0.8679580832831562,left,right,"(0, 0)","(1, 1)","(0, 0)","(0, 0)","(1, 0)","(0, 1)","(0, 0)","(0, 0)"
44,8.5,45_top_r,True,3.6189875417621806,,3.7235144583974034,faster,True,False,True,down,True,1.984760000021197,left,down,"(0, 0)","(1, 0)","(0, 1)","(0, 0)","(0, 0)","(0, 0)","(1, 1)","(0, 0)"
45,8.5,135_bottom_r,True,3.6190364584326744,,,,False,False,True,,,,left,up,"(0, 1)","(1, 0)","(0, 0)","(0, 0)","(1, 1)","(0, 0)","(0, 0)","(0, 0)"
46,8.5,45_top_r,False,,,,,False,True,False,,,,left,right,"(0, 0)","(1, 1)","(0, 0)","(0, 0)","(0, 0)","(0, 1)","(1, 0)","(0, 0)"
47,8.0,45_bottom_d,True,3.6176542083267123,,3.7221467916388065,slower,True,False,True,right,True,1.1036074999719858,up,right,"(0, 0)","(0, 1)","(1, 0)","(0, 0)","(0, 0)","(1, 1)","(0, 0)","(0, 0)"
48,8.5,135_top_u,False,,,3.7268839166499674,slower,True,True,False,up,True,1.03998483333271,down,up,"(1, 1)","(0, 0)","(0, 0)","(0, 0)","(0, 1)","(1, 0)","(0, 0)","(0, 0)"
49,8.5,none_l,False,,,3.7206936249276623,faster,True,True,True,left,True,0.8245939584448934,right,left,"(0, 0)","(0, 0)","(0, 0)","(1, 1)","(0, 0)","(0, 0)","(0, 0)","(1, 1)"
50,8.0,135_top_l,False,,,,,False,True,False,,,,right,left,"(0, 0)","(0, 0)","(0, 0)","(1, 1)","(0, 0)","(0, 0)","(1, 0)","(0, 1)"
51,7.5,45_bottom_l,True,3.647542916587554,,,,False,False,True,,,,right,up,"(0, 1)","(0, 0)","(0, 0)","(1, 0)","(1, 1)","(0, 0)","(0, 0)","(0, 0)"
52,8.5,none_u,False,,,3.7174325834494084,faster,True,True,True,up,True,1.117994499974884,down,up,"(1, 1)","(0, 0)","(0, 0)","(0, 0)","(1, 1)","(0, 0)","(0, 0)","(0, 0)"
53,7.5,135_top_l,False,,,,,False,True,False,,,,right,left,"(0, 0)","(0, 0)","(0, 0)","(1, 1)","(0, 0)","(0, 0)","(1, 0)","(0, 1)"
54,8.0,135_bottom_d,True,3.6388026250060648,,,,False,False,True,,,,up,left,"(0, 0)","(0, 0)","(1, 0)","(0, 1)","(0, 0)","(0, 0)","(0, 0)","(1, 1)"
55,7.5,45_bottom_l,False,,,3.7258853333769366,faster,True,True,False,left,True,0.9320939166937023,right,left,"(0, 0)","(0, 0)","(0, 0)","(1, 1)","(1, 0)","(0, 0)","(0, 0)","(0, 1)"
56,8.5,none_u,True,,left,,,False,False,False,,,,down,left,"(1, 0)","(0, 0)","(0, 0)","(0, 1)","(1, 0)","(0, 0)","(0, 0)","(0, 1)"
57,8.0,none_r,True,,left,,,False,False,False,,,,left,up,"(0, 1)","(1, 0)","(0, 0)","(0, 0)","(0, 1)","(1, 0)","(0, 0)","(0, 0)"
58,7.5,none_l,False,,,3.721424291608855,slower,True,True,True,left,True,1.2104901249986142,right,left,"(0, 0)","(0, 0)","(0, 0)","(1, 1)","(0, 0)","(0, 0)","(0, 0)","(1, 1)"
59,8.5,45_top_r,False,,,3.744507500086911,faster,True,True,False,right,True,1.317738416721113,left,right,"(0, 0)","(1, 1)","(0, 0)","(0, 0)","(0, 0)","(0, 1)","(1, 0)","(0, 0)"
60,7.5,none_r,True,,right,3.7218125000363216,slower,True,False,False,,False,,left,down,"(0, 0)","(1, 0)","(0, 1)","(0, 0)","(0, 0)","(1, 0)","(0, 1)","(0, 0)"
61,8.0,none_u,True,,left,,,False,False,False,left,False,1.2876285418169573,down,left,"(1, 0)","(0, 0)","(0, 0)","(0, 1)","(1, 0)","(0, 0)","(0, 0)","(0, 1)"
62,8.5,45_bottom_l,False,,,3.726858166628517,faster,True,True,False,left,True,1.269289999967441,right,left,"(0, 0)","(0, 0)","(0, 0)","(1, 1)","(1, 0)","(0, 0)","(0, 0)","(0, 1)"
63,8.0,none_l,True,,left,,,False,False,False,,,,right,down,"(0, 0)","(0, 0)","(0, 1)","(1, 0)","(0, 0)","(0, 0)","(0, 1)","(1, 0)"
64,7.5,135_top_l,True,3.6503013749606907,,,,False,False,True,,,,right,down,"(0, 0)","(0, 0)","(0, 1)","(1, 0)","(0, 0)","(0, 0)","(1, 1)","(0, 0)"
65,7.5,45_bottom_d,False,,,,,False,True,False,,,,up,down,"(0, 0)","(0, 0)","(1, 1)","(0, 0)","(0, 0)","(1, 0)","(0, 1)","(0, 0)"
66,7.5,45_bottom_d,True,3.6191429999889806,,3.7261377916438505,slower,True,False,True,right,True,0.846356458379887,up,right,"(0, 0)","(0, 1)","(1, 0)","(0, 0)","(0, 0)","(1, 1)","(0, 0)","(0, 0)"
67,8.0,135_top_u,True,3.619427249999717,,,,False,False,True,,,,down,right,"(1, 0)","(0, 1)","(0, 0)","(0, 0)","(0, 0)","(1, 1)","(0, 0)","(0, 0)"
68,7.5,45_top_u,False,,,,,False,True,False,,,,down,up,"(1, 1)","(0, 0)","(0, 0)","(0, 0)","(0, 1)","(0, 0)","(0, 0)","(1, 0)"
69,8.0,none_r,True,,left,3.717331833438948,faster,True,False,False,,False,,left,up,"(0, 1)","(1, 0)","(0, 0)","(0, 0)","(0, 1)","(1, 0)","(0, 0)","(0, 0)"
70,8.5,45_top_u,True,3.620090416749008,,3.724444833351299,slower,True,False,True,left,True,1.1014309165766463,down,left,"(1, 0)","(0, 0)","(0, 0)","(0, 1)","(0, 0)","(0, 0)","(0, 0)","(1, 1)"
71,8.0,45_bottom_d,False,,,,,False,True,False,,,,up,down,"(0, 0)","(0, 0)","(1, 1)","(0, 0)","(0, 0)","(1, 0)","(0, 1)","(0, 0)"
72,7.5,135_top_l,True,3.6250417915871367,,3.7319059999426827,faster,True,False,True,down,True,1.1890797916566953,right,down,"(0, 0)","(0, 0)","(0, 1)","(1, 0)","(0, 0)","(0, 0)","(1, 1)","(0, 0)"
73,7.5,45_top_u,True,3.617346000042744,,,,False,False,True,,,,down,left,"(1, 0)","(0, 0)","(0, 0)","(0, 1)","(0, 0)","(0, 0)","(0, 0)","(1, 1)"
74,7.5,45_bottom_l,False,,,3.726172750000842,faster,True,True,False,left,True,0.9969187917886302,right,left,"(0, 0)","(0, 0)","(0, 0)","(1, 1)","(1, 0)","(0, 0)","(0, 0)","(0, 1)"
75,8.0,135_bottom_r,True,3.621778875007294,,,,False,False,True,,,,left,up,"(0, 1)","(1, 0)","(0, 0)","(0, 0)","(1, 1)","(0, 0)","(0, 0)","(0, 0)"
76,8.0,none_r,True,,left,,,False,False,False,,,,left,up,"(0, 1)","(1, 0)","(0, 0)","(0, 0)","(0, 1)","(1, 0)","(0, 0)","(0, 0)"
77,8.0,none_d,False,,,,,False,True,True,,,,up,down,"(0, 0)","(0, 0)","(1, 1)","(0, 0)","(0, 0)","(0, 0)","(1, 1)","(0, 0)"
78,7.5,45_bottom_l,True,3.6153272499796003,,3.7194829166401178,faster,True,False,True,up,True,1.0815635833423585,right,up,"(0, 1)","(0, 0)","(0, 0)","(1, 0)","(1, 1)","(0, 0)","(0, 0)","(0, 0)"
79,7.5,135_top_u,False,,,,,False,True,False,,,,down,up,"(1, 1)","(0, 0)","(0, 0)","(0, 0)","(0, 1)","(1, 0)","(0, 0)","(0, 0)"
80,7.5,45_bottom_d,True,3.619908458320424,,3.7260165417101234,slower,True,False,True,right,True,0.8706389999715611,up,right,"(0, 0)","(0, 1)","(1, 0)","(0, 0)","(0, 0)","(1, 1)","(0, 0)","(0, 0)"
81,8.0,45_bottom_d,False,,,,,False,True,False,,,,up,down,"(0, 0)","(0, 0)","(1, 1)","(0, 0)","(0, 0)","(1, 0)","(0, 1)","(0, 0)"
82,7.5,45_bottom_l,False,,,,,False,True,False,left,False,0.8427704167552292,right,left,"(0, 0)","(0, 0)","(0, 0)","(1, 1)","(1, 0)","(0, 0)","(0, 0)","(0, 1)"
83,7.5,135_bottom_r,True,3.6176080416189507,,,,False,False,True,,,,left,up,"(0, 1)","(1, 0)","(0, 0)","(0, 0)","(1, 1)","(0, 0)","(0, 0)","(0, 0)"
84,7.5,135_top_u,False,,,3.727695499896072,slower,True,True,False,up,True,0.9737800834700465,down,up,"(1, 1)","(0, 0)","(0, 0)","(0, 0)","(0, 1)","(1, 0)","(0, 0)","(0, 0)"
85,8.5,135_bottom_d,True,3.618558833375573,,3.723442083457485,faster,True,False,True,left,True,0.9338325415737927,up,left,"(0, 0)","(0, 0)","(1, 0)","(0, 1)","(0, 0)","(0, 0)","(0, 0)","(1, 1)"
86,7.5,none_u,False,,,3.7204302500467747,faster,True,True,True,up,True,0.975824874942191,down,up,"(1, 1)","(0, 0)","(0, 0)","(0, 0)","(1, 1)","(0, 0)","(0, 0)","(0, 0)"
87,8.5,none_l,True,,left,3.736657749977894,faster,True,False,False,,False,,right,down,"(0, 0)","(0, 0)","(0, 1)","(1, 0)","(0, 0)","(0, 0)","(0, 1)","(1, 0)"
88,7.5,45_top_r,True,3.6190910417353734,,,,False,False,True,,,,left,down,"(0, 0)","(1, 0)","(0, 1)","(0, 0)","(0, 0)","(0, 0)","(1, 1)","(0, 0)"
89,8.0,45_top_r,True,3.61932399997022,,3.724221083219163,slower,True,False,True,down,True,1.0194906666874886,left,down,"(0, 0)","(1, 0)","(0, 1)","(0, 0)","(0, 0)","(0, 0)","(1, 1)","(0, 0)"
90,8.0,135_top_u,True,3.6300767918583006,,,,False,False,True,,,,down,right,"(1, 0)","(0, 1)","(0, 0)","(0, 0)","(0, 0)","(1, 1)","(0, 0)","(0, 0)"
91,7.5,135_top_u,True,3.621197958360426,,3.728348750039004,faster,True,False,True,right,True,0.8558913749875501,down,right,"(1, 0)","(0, 1)","(0, 0)","(0, 0)","(0, 0)","(1, 1)","(0, 0)","(0, 0)"
92,7.5,none_r,True,,left,3.7467440416803584,faster,True,False,False,,False,,left,up,"(0, 1)","(1, 0)","(0, 0)","(0, 0)","(0, 1)","(1, 0)","(0, 0)","(0, 0)"
93,8.0,135_bottom_d,True,3.6183409166987985,,,,False,False,True,,,,up,left,"(0, 0)","(0, 0)","(1, 0)","(0, 1)","(0, 0)","(0, 0)","(0, 0)","(1, 1)"
94,8.5,none_r,True,,right,,,False,False,False,,,,left,down,"(0, 0)","(1, 0)","(0, 1)","(0, 0)","(0, 0)","(1, 0)","(0, 1)","(0, 0)"
95,8.0,135_top_l,True,3.6260687082540244,,3.732137291575782,slower,True,False,True,,False,,right,down,"(0, 0)","(0, 0)","(0, 1)","(1, 0)","(0, 0)","(0, 0)","(1, 1)","(0, 0)"
96,8.5,45_top_u,False,,,,,False,True,False,,,,down,up,"(1, 1)","(0, 0)","(0, 0)","(0, 0)","(0, 1)","(0, 0)","(0, 0)","(1, 0)"
97,7.5,none_u,True,,right,3.7167354167904705,slower,True,False,False,,False,,down,right,"(1, 0)","(0, 1)","(0, 0)","(0, 0)","(1, 0)","(0, 1)","(0, 0)","(0, 0)"
98,8.5,45_bottom_d,False,,,,,False,True,False,,,,up,down,"(0, 0)","(0, 0)","(1, 1)","(0, 0)","(0, 0)","(1, 0)","(0, 1)","(0, 0)"
99,8.5,none_d,True,,right,,,False,False,False,,,,up,left,"(0, 0)","(0, 0)","(1, 0)","(0, 1)","(0, 0)","(0, 0)","(1, 0)","(0, 1)"
100,8.5,135_top_l,False,,,3.730645833304152,slower,True,True,False,left,True,1.1246911250054836,right,left,"(0, 0)","(0, 0)","(0, 0)","(1, 1)","(0, 0)","(0, 0)","(1, 0)","(0, 1)"
101,8.5,none_d,False,,,,,False,True,True,,,,up,down,"(0, 0)","(0, 0)","(1, 1)","(0, 0)","(0, 0)","(0, 0)","(1, 1)","(0, 0)"
102,7.5,135_top_l,False,,,,,False,True,False,,,,right,left,"(0, 0)","(0, 0)","(0, 0)","(1, 1)","(0, 0)","(0, 0)","(1, 0)","(0, 1)"
103,7.5,45_bottom_d,False,,,,,False,True,False,,,,up,down,"(0, 0)","(0, 0)","(1, 1)","(0, 0)","(0, 0)","(1, 0)","(0, 1)","(0, 0)"
104,7.5,none_r,True,,left,,,False,False,False,,,,left,up,"(0, 1)","(1, 0)","(0, 0)","(0, 0)","(0, 1)","(1, 0)","(0, 0)","(0, 0)"
105,8.5,135_bottom_d,True,3.6174462500493973,,,,False,False,True,,,,up,left,"(0, 0)","(0, 0)","(1, 0)","(0, 1)","(0, 0)","(0, 0)","(0, 0)","(1, 1)"
106,7.5,45_top_u,True,3.618055166793056,,,,False,False,True,,,,down,left,"(1, 0)","(0, 0)","(0, 0)","(0, 1)","(0, 0)","(0, 0)","(0, 0)","(1, 1)"
107,7.5,45_bottom_l,True,3.615926833357662,,,,False,False,True,,,,right,up,"(0, 1)","(0, 0)","(0, 0)","(1, 0)","(1, 1)","(0, 0)","(0, 0)","(0, 0)"
108,7.5,none_d,False,,,3.7213549583684653,faster,True,True,True,,False,,up,down,"(0, 0)","(0, 0)","(1, 1)","(0, 0)","(0, 0)","(0, 0)","(1, 1)","(0, 0)"
109,8.5,135_bottom_d,True,3.6177313333610073,,,,False,False,True,,,,up,left,"(0, 0)","(0, 0)","(1, 0)","(0, 1)","(0, 0)","(0, 0)","(0, 0)","(1, 1)"
110,8.5,135_bottom_r,True,3.621726041659713,,,,False,False,True,,,,left,up,"(0, 1)","(1, 0)","(0, 0)","(0, 0)","(1, 1)","(0, 0)","(0, 0)","(0, 0)"
111,7.5,135_top_l,False,,,,,False,True,False,,,,right,left,"(0, 0)","(0, 0)","(0, 0)","(1, 1)","(0, 0)","(0, 0)","(1, 0)","(0, 1)"
112,8.0,135_top_u,True,3.6195331666385755,,3.724600499961525,faster,True,False,True,right,True,1.2273651666473597,down,right,"(1, 0)","(0, 1)","(0, 0)","(0, 0)","(0, 0)","(1, 1)","(0, 0)","(0, 0)"
113,8.5,135_bottom_d,False,,,,,False,True,False,,,,up,down,"(0, 0)","(0, 0)","(1, 1)","(0, 0)","(0, 0)","(0, 0)","(0, 1)","(1, 0)"
114,8.5,none_u,True,,right,,,False,False,False,,,,down,right,"(1, 0)","(0, 1)","(0, 0)","(0, 0)","(1, 0)","(0, 1)","(0, 0)","(0, 0)"
115,8.0,none_l,False,,,,,False,True,True,,,,right,left,"(0, 0)","(0, 0)","(0, 0)","(1, 1)","(0, 0)","(0, 0)","(0, 0)","(1, 1)"
116,8.0,135_bottom_d,True,3.619652916677296,,3.724873708328232,faster,True,False,True,left,True,1.125017166719772,up,left,"(0, 0)","(0, 0)","(1, 0)","(0, 1)","(0, 0)","(0, 0)","(0, 0)","(1, 1)"
117,8.5,135_bottom_r,False,,,,,False,True,False,,,,left,right,"(0, 0)","(1, 1)","(0, 0)","(0, 0)","(1, 0)","(0, 1)","(0, 0)","(0, 0)"
118,8.5,135_top_u,False,,,3.722982208360918,slower,True,True,False,up,True,1.002188374986872,down,up,"(1, 1)","(0, 0)","(0, 0)","(0, 0)","(0, 1)","(1, 0)","(0, 0)","(0, 0)"
119,8.0,none_r,False,,,3.7193492081714794,slower,True,True,True,right,True,0.9148547918302938,left,right,"(0, 0)","(1, 1)","(0, 0)","(0, 0)","(0, 0)","(1, 1)","(0, 0)","(0, 0)"
120,8.5,none_r,True,,left,,,False,False,False,,,,left,up,"(0, 1)","(1, 0)","(0, 0)","(0, 0)","(0, 1)","(1, 0)","(0, 0)","(0, 0)"
121,7.5,none_d,True,,left,,,False,False,False,,,,up,right,"(0, 0)","(0, 1)","(1, 0)","(0, 0)","(0, 0)","(0, 1)","(1, 0)","(0, 0)"
122,7.5,none_l,False,,,3.728755291784182,slower,True,True,True,left,True,0.8891948332311586,right,left,"(0, 0)","(0, 0)","(0, 0)","(1, 1)","(0, 0)","(0, 0)","(0, 0)","(1, 1)"
123,7.5,45_bottom_l,False,,,,,False,True,False,,,,right,left,"(0, 0)","(0, 0)","(0, 0)","(1, 1)","(1, 0)","(0, 0)","(0, 0)","(0, 1)"
124,8.5,none_d,False,,,3.7256597500527278,faster,True,True,True,down,True,1.0378136249491945,up,down,"(0, 0)","(0, 0)","(1, 1)","(0, 0)","(0, 0)","(0, 0)","(1, 1)","(0, 0)"
125,8.5,135_top_u,False,,,3.7170314583927393,slower,True,True,False,up,True,0.9355282083852217,down,up,"(1, 1)","(0, 0)","(0, 0)","(0, 0)","(0, 1)","(1, 0)","(0, 0)","(0, 0)"
126,8.5,none_d,True,,right,,,False,False,False,,,,up,left,"(0, 0)","(0, 0)","(1, 0)","(0, 1)","(0, 0)","(0, 0)","(1, 0)","(0, 1)"
127,8.0,45_top_r,True,3.65716454165522,,,,False,False,True,,,,left,down,"(0, 0)","(1, 0)","(0, 1)","(0, 0)","(0, 0)","(0, 0)","(1, 1)","(0, 0)"
128,7.5,135_bottom_r,True,3.6668618333060294,,,,False,False,True,,,,left,up,"(0, 1)","(1, 0)","(0, 0)","(0, 0)","(1, 1)","(0, 0)","(0, 0)","(0, 0)"
129,7.5,135_top_l,False,,,3.7331328749423847,slower,True,True,False,left,True,0.9606509167933837,right,left,"(0, 0)","(0, 0)","(0, 0)","(1, 1)","(0, 0)","(0, 0)","(1, 0)","(0, 1)"
130,8.5,135_top_u,False,,,3.725289999973029,slower,True,True,False,up,True,0.9536082084523514,down,up,"(1, 1)","(0, 0)","(0, 0)","(0, 0)","(0, 1)","(1, 0)","(0, 0)","(0, 0)"
131,8.5,45_top_u,False,,,,,False,True,False,,,,down,up,"(1, 1)","(0, 0)","(0, 0)","(0, 0)","(0, 1)","(0, 0)","(0, 0)","(1, 0)"
132,8.0,none_u,True,,right,3.724868749966845,faster,True,False,False,,False,,down,right,"(1, 0)","(0, 1)","(0, 0)","(0, 0)","(1, 0)","(0, 1)","(0, 0)","(0, 0)"
133,8.0,45_top_u,True,3.617890041670762,,3.7230459166457877,slower,True,False,True,left,True,1.0191207918105647,down,left,"(1, 0)","(0, 0)","(0, 0)","(0, 1)","(0, 0)","(0, 0)","(0, 0)","(1, 1)"
134,8.0,45_top_r,False,,,3.7247872499283403,faster,True,True,False,right,True,1.0168377499794587,left,right,"(0, 0)","(1, 1)","(0, 0)","(0, 0)","(0, 0)","(0, 1)","(1, 0)","(0, 0)"
135,8.5,45_top_u,False,,,3.721187041606754,slower,True,True,False,up,True,1.083245083456859,down,up,"(1, 1)","(0, 0)","(0, 0)","(0, 0)","(0, 1)","(0, 0)","(0, 0)","(1, 0)"
136,8.0,45_top_u,False,,,,,False,True,False,up,False,1.2884964999975637,down,up,"(1, 1)","(0, 0)","(0, 0)","(0, 0)","(0, 1)","(0, 0)","(0, 0)","(1, 0)"
137,7.5,none_u,False,,,,,False,True,True,,,,down,up,"(1, 1)","(0, 0)","(0, 0)","(0, 0)","(1, 1)","(0, 0)","(0, 0)","(0, 0)"
138,8.0,135_bottom_r,True,3.6196647917386144,,,,False,False,True,,,,left,up,"(0, 1)","(1, 0)","(0, 0)","(0, 0)","(1, 1)","(0, 0)","(0, 0)","(0, 0)"
139,8.0,135_bottom_r,True,3.616273208404891,,3.7220329167321324,faster,True,False,True,up,True,1.0413782083196566,left,up,"(0, 1)","(1, 0)","(0, 0)","(0, 0)","(1, 1)","(0, 0)","(0, 0)","(0, 0)"
140,8.0,none_l,False,,,3.7346875416114926,faster,True,True,True,left,True,1.0161676667630672,right,left,"(0, 0)","(0, 0)","(0, 0)","(1, 1)","(0, 0)","(0, 0)","(0, 0)","(1, 1)"
141,8.0,45_bottom_d,False,,,3.7213772918330505,slower,True,True,False,down,True,1.0720805415185168,up,down,"(0, 0)","(0, 0)","(1, 1)","(0, 0)","(0, 0)","(1, 0)","(0, 1)","(0, 0)"
142,8.5,45_bottom_l,False,,,3.7286105416715145,faster,True,True,False,left,True,0.8297113333828747,right,left,"(0, 0)","(0, 0)","(0, 0)","(1, 1)","(1, 0)","(0, 0)","(0, 0)","(0, 1)"
143,8.0,135_top_u,False,,,,,False,True,False,,,,down,up,"(1, 1)","(0, 0)","(0, 0)","(0, 0)","(0, 1)","(1, 0)","(0, 0)","(0, 0)"
144,8.0,135_bottom_r,True,3.6199843749636784,,3.725460833287798,slower,True,False,True,up,True,0.9938944583991542,left,up,"(0, 1)","(1, 0)","(0, 0)","(0, 0)","(1, 1)","(0, 0)","(0, 0)","(0, 0)"
145,8.0,135_top_u,False,,,3.7279584583593532,slower,True,True,False,,False,,down,up,"(1, 1)","(0, 0)","(0, 0)","(0, 0)","(0, 1)","(1, 0)","(0, 0)","(0, 0)"
146,8.0,none_l,False,,,,,False,True,True,,,,right,left,"(0, 0)","(0, 0)","(0, 0)","(1, 1)","(0, 0)","(0, 0)","(0, 0)","(1, 1)"
147,8.5,45_bottom_d,False,,,3.721375666675158,faster,True,True,False,,False,,up,down,"(0, 0)","(0, 0)","(1, 1)","(0, 0)","(0, 0)","(1, 0)","(0, 1)","(0, 0)"
148,8.0,none_d,False,,,,,False,True,True,,,,up,down,"(0, 0)","(0, 0)","(1, 1)","(0, 0)","(0, 0)","(0, 0)","(1, 1)","(0, 0)"
149,8.5,135_top_u,False,,,3.7428954583592713,faster,True,True,False,up,True,0.8159557082690299,down,up,"(1, 1)","(0, 0)","(0, 0)","(0, 0)","(0, 1)","(1, 0)","(0, 0)","(0, 0)"
150,8.0,135_bottom_d,True,3.616961416788399,,3.7225371667882428,slower,True,False,True,left,True,0.9321329582016915,up,left,"(0, 0)","(0, 0)","(1, 0)","(0, 1)","(0, 0)","(0, 0)","(0, 0)","(1, 1)"
