trial,ball_speed,interactor,bounce,bounce_moment,random_bounce_direction,target_onset,speed_change,ball_change,abs_congruent,sim_congruent,response,accuracy,rt,start_pos,end_pos,abs_rfup,abs_rfright,abs_rfdown,abs_rfleft,sim_rfup,sim_rfright,sim_rfdown,sim_rfleft
1,5.5,none,True,8.292089041666259,left,8.681883958332037,slower,True,False,False,,False,,right,down,"(0, 0)","(0, 0)","(0, 1)","(1, 0)","(0, 0)","(0, 0)","(0, 1)","(1, 0)"
2,5.0,none,True,8.09213220833226,left,,,False,False,False,up,False,0.6946841666667751,left,up,"(0, 1)","(1, 0)","(0, 0)","(0, 0)","(0, 1)","(1, 0)","(0, 0)","(0, 0)"
3,5.5,none,True,8.122141208332323,right,,,False,False,False,left,False,0.648256083333763,up,left,"(0, 0)","(0, 0)","(1, 0)","(0, 1)","(0, 0)","(0, 0)","(1, 0)","(0, 1)"
4,5.0,none,True,8.100986583334816,left,,,False,False,False,,,,left,up,"(0, 1)","(1, 0)","(0, 0)","(0, 0)","(0, 1)","(1, 0)","(0, 0)","(0, 0)"
5,5.0,none,False,,,,,False,True,True,,,,down,up,"(1, 1)","(0, 0)","(0, 0)","(0, 0)","(1, 1)","(0, 0)","(0, 0)","(0, 0)"
6,5.0,45,False,,,,,False,True,False,,,,left,right,"(0, 0)","(1, 1)","(0, 0)","(0, 0)","(1, 0)","(0, 1)","(0, 0)","(0, 0)"
7,4.5,none,False,,,,,False,True,True,,,,up,down,"(0, 0)","(0, 0)","(1, 1)","(0, 0)","(0, 0)","(0, 0)","(1, 1)","(0, 0)"
8,5.5,none,True,8.092237791666776,right,,,False,False,False,down,False,0.8387685833331489,left,down,"(0, 0)","(1, 0)","(0, 1)","(0, 0)","(0, 0)","(1, 0)","(0, 1)","(0, 0)"
9,4.5,none,False,,,,,False,True,True,,,,down,up,"(1, 1)","(0, 0)","(0, 0)","(0, 0)","(1, 1)","(0, 0)","(0, 0)","(0, 0)"
10,5.0,none,True,8.09250454166795,left,,,False,False,False,,,,right,down,"(0, 0)","(0, 0)","(0, 1)","(1, 0)","(0, 0)","(0, 0)","(0, 1)","(1, 0)"
11,5.5,45,True,7.9928951666661305,,8.199418250000235,faster,True,False,True,down,True,0.6630960000002233,right,down,"(0, 0)","(0, 0)","(0, 1)","(1, 0)","(0, 0)","(0, 0)","(1, 1)","(0, 0)"
12,5.5,135,True,7.971912125000017,,,,False,False,True,up,False,0.6358803749990329,right,up,"(0, 1)","(0, 0)","(0, 0)","(1, 0)","(1, 1)","(0, 0)","(0, 0)","(0, 0)"
13,5.0,45,True,7.985473833332435,,,,False,False,True,,,,up,left,"(0, 0)","(0, 0)","(1, 0)","(0, 1)","(0, 0)","(0, 0)","(0, 0)","(1, 1)"
14,4.5,135,True,8.115923750001457,,8.56710529166594,slower,True,False,True,,False,,up,right,"(0, 0)","(0, 1)","(1, 0)","(0, 0)","(0, 0)","(1, 1)","(0, 0)","(0, 0)"
15,4.5,45,False,,,,,False,True,False,,,,up,down,"(0, 0)","(0, 0)","(1, 1)","(0, 0)","(0, 0)","(0, 0)","(0, 1)","(1, 0)"
16,5.5,135,True,7.983900583330978,,8.187576708331108,faster,True,False,True,right,True,0.9169357083337673,up,right,"(0, 0)","(0, 1)","(1, 0)","(0, 0)","(0, 0)","(1, 1)","(0, 0)","(0, 0)"
17,5.0,135,True,7.983452791666423,,,,False,False,True,right,False,1.0396810000002006,up,right,"(0, 0)","(0, 1)","(1, 0)","(0, 0)","(0, 0)","(1, 1)","(0, 0)","(0, 0)"
18,5.0,none,False,,,,,False,True,True,,,,left,right,"(0, 0)","(1, 1)","(0, 0)","(0, 0)","(0, 0)","(1, 1)","(0, 0)","(0, 0)"
19,5.5,135,True,7.9936403749998135,,,,False,False,True,down,False,0.9317767083321087,left,down,"(0, 0)","(1, 0)","(0, 1)","(0, 0)","(0, 0)","(0, 0)","(1, 1)","(0, 0)"
20,4.5,none,False,,,,,False,True,True,,,,left,right,"(0, 0)","(1, 1)","(0, 0)","(0, 0)","(0, 0)","(1, 1)","(0, 0)","(0, 0)"
21,5.5,45,True,7.980999541667188,,,,False,False,True,down,False,0.5047378333310917,right,down,"(0, 0)","(0, 0)","(0, 1)","(1, 0)","(0, 0)","(0, 0)","(1, 1)","(0, 0)"
22,5.5,45,True,7.956917583333052,,,,False,False,True,,,,right,down,"(0, 0)","(0, 0)","(0, 1)","(1, 0)","(0, 0)","(0, 0)","(1, 1)","(0, 0)"
23,4.5,45,True,7.98245124999994,,,,False,False,True,,,,left,up,"(0, 1)","(1, 0)","(0, 0)","(0, 0)","(1, 1)","(0, 0)","(0, 0)","(0, 0)"
24,4.5,45,True,8.035288749999381,,8.491535708333686,slower,True,False,True,,False,,down,right,"(1, 0)","(0, 1)","(0, 0)","(0, 0)","(0, 0)","(1, 1)","(0, 0)","(0, 0)"
25,5.5,45,False,,,8.34030200000052,faster,True,True,False,,False,,down,up,"(1, 1)","(0, 0)","(0, 0)","(0, 0)","(0, 1)","(1, 0)","(0, 0)","(0, 0)"
26,5.0,45,False,,,8.354494833332865,faster,True,True,False,up,True,1.0204630416683358,down,up,"(1, 1)","(0, 0)","(0, 0)","(0, 0)","(0, 1)","(1, 0)","(0, 0)","(0, 0)"
27,4.5,45,False,,,8.33453929166717,faster,True,True,False,up,True,0.6313168333326757,down,up,"(1, 1)","(0, 0)","(0, 0)","(0, 0)","(0, 1)","(1, 0)","(0, 0)","(0, 0)"
28,5.5,135,True,7.961110374999407,,8.18152045833267,faster,True,False,True,right,True,0.56990287500048,up,right,"(0, 0)","(0, 1)","(1, 0)","(0, 0)","(0, 0)","(1, 1)","(0, 0)","(0, 0)"
29,5.5,135,False,,,8.368429374999323,faster,True,True,False,,False,,left,right,"(0, 0)","(1, 1)","(0, 0)","(0, 0)","(0, 0)","(0, 1)","(1, 0)","(0, 0)"
30,5.5,135,True,8.000904291666302,,,,False,False,True,,,,up,right,"(0, 0)","(0, 1)","(1, 0)","(0, 0)","(0, 0)","(1, 1)","(0, 0)","(0, 0)"
31,4.5,135,False,,,,,False,True,False,,,,down,up,"(1, 1)","(0, 0)","(0, 0)","(0, 0)","(0, 1)","(0, 0)","(0, 0)","(1, 0)"
32,5.5,135,False,,,,,False,True,False,,,,up,down,"(0, 0)","(0, 0)","(1, 1)","(0, 0)","(0, 0)","(1, 0)","(0, 1)","(0, 0)"
33,4.5,none,False,,,,,False,True,True,,,,right,left,"(0, 0)","(0, 0)","(0, 0)","(1, 1)","(0, 0)","(0, 0)","(0, 0)","(1, 1)"
34,5.5,none,False,,,,,False,True,True,,,,left,right,"(0, 0)","(1, 1)","(0, 0)","(0, 0)","(0, 0)","(1, 1)","(0, 0)","(0, 0)"
35,5.5,none,True,8.119900666666581,left,,,False,False,False,,,,left,up,"(0, 1)","(1, 0)","(0, 0)","(0, 0)","(0, 1)","(1, 0)","(0, 0)","(0, 0)"
36,4.5,none,False,,,,,False,True,True,,,,left,right,"(0, 0)","(1, 1)","(0, 0)","(0, 0)","(0, 0)","(1, 1)","(0, 0)","(0, 0)"
37,5.5,45,False,,,,,False,True,False,,,,down,up,"(1, 1)","(0, 0)","(0, 0)","(0, 0)","(0, 1)","(1, 0)","(0, 0)","(0, 0)"
38,4.5,45,True,7.982455791665416,,,,False,False,True,,,,up,left,"(0, 0)","(0, 0)","(1, 0)","(0, 1)","(0, 0)","(0, 0)","(0, 0)","(1, 1)"
39,5.5,135,False,,,,,False,True,False,,,,down,up,"(1, 1)","(0, 0)","(0, 0)","(0, 0)","(0, 1)","(0, 0)","(0, 0)","(1, 0)"
40,5.0,45,False,,,,,False,True,False,,,,right,left,"(0, 0)","(0, 0)","(0, 0)","(1, 1)","(0, 0)","(0, 0)","(1, 0)","(0, 1)"
41,5.0,135,True,7.987664083333584,,,,False,False,True,left,False,0.7118827083340875,down,left,"(1, 0)","(0, 0)","(0, 0)","(0, 1)","(0, 0)","(0, 0)","(0, 0)","(1, 1)"
42,4.5,none,False,,,,,False,True,True,,,,left,right,"(0, 0)","(1, 1)","(0, 0)","(0, 0)","(0, 0)","(1, 1)","(0, 0)","(0, 0)"
43,5.0,135,False,,,,,False,True,False,,,,right,left,"(0, 0)","(0, 0)","(0, 0)","(1, 1)","(1, 0)","(0, 0)","(0, 0)","(0, 1)"
44,5.0,none,False,,,,,False,True,True,,,,down,up,"(1, 1)","(0, 0)","(0, 0)","(0, 0)","(1, 1)","(0, 0)","(0, 0)","(0, 0)"
45,5.0,45,False,,,,,False,True,False,down,False,1.4420539583315986,up,down,"(0, 0)","(0, 0)","(1, 1)","(0, 0)","(0, 0)","(0, 0)","(0, 1)","(1, 0)"
46,4.5,135,True,7.985659791665967,,,,False,False,True,,,,right,up,"(0, 1)","(0, 0)","(0, 0)","(1, 0)","(1, 1)","(0, 0)","(0, 0)","(0, 0)"
47,4.5,none,True,8.112234083333533,right,,,False,False,False,right,False,0.7962470416659926,down,right,"(1, 0)","(0, 1)","(0, 0)","(0, 0)","(1, 0)","(0, 1)","(0, 0)","(0, 0)"
48,4.5,135,False,,,,,False,True,False,,,,right,left,"(0, 0)","(0, 0)","(0, 0)","(1, 1)","(1, 0)","(0, 0)","(0, 0)","(0, 1)"
49,5.0,135,True,7.958630458333573,,8.186444083334209,faster,True,False,True,,False,,down,left,"(1, 0)","(0, 0)","(0, 0)","(0, 1)","(0, 0)","(0, 0)","(0, 0)","(1, 1)"
50,4.5,none,True,8.133383624999624,left,,,False,False,False,,,,right,down,"(0, 0)","(0, 0)","(0, 1)","(1, 0)","(0, 0)","(0, 0)","(0, 1)","(1, 0)"
51,4.5,45,True,7.953159708335079,,8.199703291667902,faster,True,False,True,,False,,right,down,"(0, 0)","(0, 0)","(0, 1)","(1, 0)","(0, 0)","(0, 0)","(1, 1)","(0, 0)"
52,4.5,135,False,,,8.780125999999655,slower,True,True,False,,False,,left,right,"(0, 0)","(1, 1)","(0, 0)","(0, 0)","(0, 0)","(0, 1)","(1, 0)","(0, 0)"
53,5.0,135,False,,,8.333897333332061,faster,True,True,False,left,True,0.8745429999999033,right,left,"(0, 0)","(0, 0)","(0, 0)","(1, 1)","(1, 0)","(0, 0)","(0, 0)","(0, 1)"
54,5.0,135,False,,,,,False,True,False,,,,right,left,"(0, 0)","(0, 0)","(0, 0)","(1, 1)","(1, 0)","(0, 0)","(0, 0)","(0, 1)"
55,5.0,45,True,7.960288791666244,,8.186944375000166,faster,True,False,True,left,True,0.7509622500001569,up,left,"(0, 0)","(0, 0)","(1, 0)","(0, 1)","(0, 0)","(0, 0)","(0, 0)","(1, 1)"
56,5.0,45,False,,,,,False,True,False,,,,up,down,"(0, 0)","(0, 0)","(1, 1)","(0, 0)","(0, 0)","(0, 0)","(0, 1)","(1, 0)"
57,4.5,45,True,8.011850041666548,,,,False,False,True,left,False,0.9897297083334706,up,left,"(0, 0)","(0, 0)","(1, 0)","(0, 1)","(0, 0)","(0, 0)","(0, 0)","(1, 1)"
58,5.0,none,False,,,,,False,True,True,,,,down,up,"(1, 1)","(0, 0)","(0, 0)","(0, 0)","(1, 1)","(0, 0)","(0, 0)","(0, 0)"
59,5.5,45,False,,,,,False,True,False,,,,left,right,"(0, 0)","(1, 1)","(0, 0)","(0, 0)","(1, 0)","(0, 1)","(0, 0)","(0, 0)"
60,5.5,135,True,8.000050500000725,,,,False,False,True,left,False,0.6611890833319194,down,left,"(1, 0)","(0, 0)","(0, 0)","(0, 1)","(0, 0)","(0, 0)","(0, 0)","(1, 1)"
