trial_type,trial,ball_speed,ball_start_color,ball_color_change,interactor,bounce,bounce_moment,random_bounce_direction,target_onset,ball_change,target_color,abs_congruent,sim_congruent,response,accuracy,rt,start_pos,end_pos,abs_rfup,abs_rfright,abs_rfdown,abs_rfleft,sim_rfup,sim_rfright,sim_rfdown,sim_rfleft
empty,1,9.362240354040408,0.2120594620222823,-0.335,none_l,True,3.5799790999735706,right,3.847291000012774,True,"[-0.12294053797771773, -0.12294053797771773, -0.12294053797771773]",False,False,darker,True,0.6838741999818012,right,up,"(0, 1)","(0, 0)","(0, 0)","(1, 0)","(0, 1)","(0, 0)","(0, 0)","(1, 0)"
interactor,2,9.524950719022844,-0.059920377412471915,0.335,45_top_u,False,,,3.8572366000153124,True,"[0.2750796225875281, 0.2750796225875281, 0.2750796225875281]",True,False,lighter,True,0.517744800017681,down,up,"(1, 1)","(0, 0)","(0, 0)","(0, 0)","(0, 1)","(0, 0)","(0, 0)","(1, 0)"
interactor,3,9.393323755744284,0.032044151108818544,-0.335,135_bottom_d,True,3.5817950000055134,,3.8483090000227094,True,"[-0.3029558488911815, -0.3029558488911815, -0.3029558488911815]",False,True,darker,True,0.7184629999683239,up,left,"(0, 0)","(0, 0)","(1, 0)","(0, 1)","(0, 0)","(0, 0)","(0, 0)","(1, 1)"
empty,4,9.143201175323995,-0.10386648016446229,-0.168,none_r,False,,,3.867608000000473,True,"[-0.2718664801644623, -0.2718664801644623, -0.2718664801644623]",True,True,darker,True,0.7319124999921769,left,right,"(0, 0)","(1, 1)","(0, 0)","(0, 0)","(0, 0)","(1, 1)","(0, 0)","(0, 0)"
interactor,5,9.854328263881325,0.3279711214902792,-0.168,45_top_r,True,3.58320780005306,,3.8655875000404194,True,"[0.15997112149027917, 0.15997112149027917, 0.15997112149027917]",False,True,lighter,False,0.550063600006979,left,down,"(0, 0)","(1, 0)","(0, 1)","(0, 0)","(0, 0)","(0, 0)","(1, 1)","(0, 0)"
empty,6,9.577112576453992,-0.021138315493576282,0.0,none_d,False,,,3.8672793000005186,True,"[-0.021138315493576282, -0.021138315493576282, -0.021138315493576282]",True,True,lighter,,0.46762650000164285,up,down,"(0, 0)","(0, 0)","(1, 1)","(0, 0)","(0, 0)","(0, 0)","(1, 1)","(0, 0)"
empty,7,9.237880801251782,-0.017953451428621092,0.335,none_d,True,3.583111799962353,right,3.850181000016164,True,"[0.31704654857137893, 0.31704654857137893, 0.31704654857137893]",False,False,lighter,True,0.45009409997146577,up,left,"(0, 0)","(0, 0)","(1, 0)","(0, 1)","(0, 0)","(0, 0)","(1, 0)","(0, 1)"
empty,8,9.65693832100294,-0.12249511940902805,0.335,none_r,True,3.58209879999049,left,3.8494053999893367,True,"[0.21250488059097197, 0.21250488059097197, 0.21250488059097197]",False,False,lighter,True,0.550411099975463,left,up,"(0, 1)","(1, 0)","(0, 0)","(0, 0)","(0, 1)","(1, 0)","(0, 0)","(0, 0)"
interactor,9,9.30561661692194,0.20599654162215608,-0.168,45_bottom_l,False,,,3.8674179999507032,True,"[0.03799654162215607, 0.03799654162215607, 0.03799654162215607]",True,False,darker,True,0.684088200039696,right,left,"(0, 0)","(0, 0)","(0, 0)","(1, 1)","(1, 0)","(0, 0)","(0, 0)","(0, 1)"
empty,10,9.339596545809396,0.24406854237984507,0.168,none_r,False,,,3.8663597000413574,True,"[0.4120685423798451, 0.4120685423798451, 0.4120685423798451]",True,True,lighter,True,0.3667352999909781,left,right,"(0, 0)","(1, 1)","(0, 0)","(0, 0)","(0, 0)","(1, 1)","(0, 0)","(0, 0)"
empty,11,9.075163254357143,0.2073071624572429,-0.168,none_r,False,,,3.8662143999827094,True,"[0.03930716245724289, 0.03930716245724289, 0.03930716245724289]",True,True,darker,True,0.6174311999930069,left,right,"(0, 0)","(1, 1)","(0, 0)","(0, 0)","(0, 0)","(1, 1)","(0, 0)","(0, 0)"
interactor,12,9.505664114974454,0.16900886142979463,0.335,135_bottom_r,False,,,3.8675518999807537,True,"[0.5040088614297946, 0.5040088614297946, 0.5040088614297946]",True,False,lighter,True,0.5483025000430644,left,right,"(0, 0)","(1, 1)","(0, 0)","(0, 0)","(1, 0)","(0, 1)","(0, 0)","(0, 0)"
empty,13,9.385534276366828,0.1114597678032364,0.335,none_d,False,,,3.865714300016407,True,"[0.44645976780323643, 0.44645976780323643, 0.44645976780323643]",True,True,lighter,True,0.41682179999770597,up,down,"(0, 0)","(0, 0)","(1, 1)","(0, 0)","(0, 0)","(0, 0)","(1, 1)","(0, 0)"
empty,14,9.330327013755666,0.38827667114969633,0.168,none_u,False,,,3.865745200018864,True,"[0.5562766711496964, 0.5562766711496964, 0.5562766711496964]",True,True,lighter,True,0.3681968999444507,down,up,"(1, 1)","(0, 0)","(0, 0)","(0, 0)","(1, 1)","(0, 0)","(0, 0)","(0, 0)"
interactor,15,9.470612360909056,-0.053485152080402415,0.168,45_bottom_l,False,,,3.864875499974005,True,"[0.1145148479195976, 0.1145148479195976, 0.1145148479195976]",True,False,lighter,True,0.4664294000249356,right,left,"(0, 0)","(0, 0)","(0, 0)","(1, 1)","(1, 0)","(0, 0)","(0, 0)","(0, 1)"
interactor,16,9.569318798112217,0.023909499645801663,0.335,45_top_u,True,3.581881499965675,,3.8494279999868013,True,"[0.35890949964580166, 0.35890949964580166, 0.35890949964580166]",False,True,lighter,True,0.5666203000000678,down,left,"(1, 0)","(0, 0)","(0, 0)","(0, 1)","(0, 0)","(0, 0)","(0, 0)","(1, 1)"
empty,17,9.398416964854267,0.1025894765746003,0.168,none_r,False,,,3.8648730000131764,True,"[0.2705894765746003, 0.2705894765746003, 0.2705894765746003]",True,True,lighter,True,0.5173517999937758,left,right,"(0, 0)","(1, 1)","(0, 0)","(0, 0)","(0, 0)","(1, 1)","(0, 0)","(0, 0)"
interactor,18,9.164378633141975,0.29653426370185604,-0.168,45_top_r,False,,,3.8659514999599196,True,"[0.12853426370185603, 0.12853426370185603, 0.12853426370185603]",True,False,lighter,False,0.48322710004867986,left,right,"(0, 0)","(1, 1)","(0, 0)","(0, 0)","(0, 0)","(0, 1)","(1, 0)","(0, 0)"
interactor,19,9.283387174201097,0.18756827612897461,0.0,135_top_u,False,,,3.8659416000009514,True,"[0.18756827612897461, 0.18756827612897461, 0.18756827612897461]",True,False,lighter,,0.6342628999846056,down,up,"(1, 1)","(0, 0)","(0, 0)","(0, 0)","(0, 1)","(1, 0)","(0, 0)","(0, 0)"
empty,20,9.484003385096898,0.27630445167328344,0.168,none_u,True,3.5844125999719836,left,3.8497268999926746,True,"[0.4443044516732835, 0.4443044516732835, 0.4443044516732835]",False,False,lighter,True,0.5506162000237964,down,left,"(1, 0)","(0, 0)","(0, 0)","(0, 1)","(1, 0)","(0, 0)","(0, 0)","(0, 1)"
interactor,21,10.104507066398128,-0.21544068286487114,-0.168,135_bottom_d,True,3.583790600008797,,3.867538599995896,True,"[-0.38344068286487115, -0.38344068286487115, -0.38344068286487115]",False,True,darker,True,0.4502871000440791,up,left,"(0, 0)","(0, 0)","(1, 0)","(0, 1)","(0, 0)","(0, 0)","(0, 0)","(1, 1)"
interactor,22,9.795740342910603,0.19171311314285733,0.0,45_bottom_d,True,3.5827460999717005,,3.850181200017687,True,"[0.19171311314285733, 0.19171311314285733, 0.19171311314285733]",False,True,lighter,,0.4327525999979116,up,right,"(0, 0)","(0, 1)","(1, 0)","(0, 0)","(0, 0)","(1, 1)","(0, 0)","(0, 0)"
empty,23,9.397949047949474,0.18237935981904244,-0.335,none_d,False,,,3.8650752999819815,True,"[-0.15262064018095758, -0.15262064018095758, -0.15262064018095758]",True,True,darker,True,0.5183811000315472,up,down,"(0, 0)","(0, 0)","(1, 1)","(0, 0)","(0, 0)","(0, 0)","(1, 1)","(0, 0)"
empty,24,9.484789754581174,0.21080350644835955,-0.168,none_r,True,3.583918199990876,right,3.849838500027545,True,"[0.042803506448359535, 0.042803506448359535, 0.042803506448359535]",False,False,lighter,False,0.4665993999806233,left,down,"(0, 0)","(1, 0)","(0, 1)","(0, 0)","(0, 0)","(1, 0)","(0, 1)","(0, 0)"
interactor,25,9.476609151689795,0.36548365527223226,0.0,45_bottom_l,True,3.5823884999845177,,3.8508474999689497,True,"[0.36548365527223226, 0.36548365527223226, 0.36548365527223226]",False,True,lighter,,0.43297580000944436,right,up,"(0, 1)","(0, 0)","(0, 0)","(1, 0)","(1, 1)","(0, 0)","(0, 0)","(0, 0)"
interactor,26,9.868750849224632,0.033089964252517604,-0.168,135_top_u,False,,,3.8662184000131674,True,"[-0.1349100357474824, -0.1349100357474824, -0.1349100357474824]",True,False,darker,True,0.4518566000042483,down,up,"(1, 1)","(0, 0)","(0, 0)","(0, 0)","(0, 1)","(1, 0)","(0, 0)","(0, 0)"
interactor,27,9.79208394350179,0.291313649323343,-0.168,135_bottom_r,False,,,3.8654088000184856,True,"[0.12331364932334302, 0.12331364932334302, 0.12331364932334302]",True,False,lighter,False,0.4345239999820478,left,right,"(0, 0)","(1, 1)","(0, 0)","(0, 0)","(1, 0)","(0, 1)","(0, 0)","(0, 0)"
empty,28,9.618329303411217,0.23206380206707328,-0.335,none_r,True,3.5832313999999315,right,3.8490163999958895,True,"[-0.10293619793292674, -0.10293619793292674, -0.10293619793292674]",False,False,darker,True,0.584764700033702,left,down,"(0, 0)","(1, 0)","(0, 1)","(0, 0)","(0, 0)","(1, 0)","(0, 1)","(0, 0)"
empty,29,9.439013600790783,0.16165389199619112,0.0,none_l,True,3.582713999960106,right,3.849136999982875,True,"[0.16165389199619112, 0.16165389199619112, 0.16165389199619112]",False,False,lighter,,0.432931000017561,right,up,"(0, 1)","(0, 0)","(0, 0)","(1, 0)","(0, 1)","(0, 0)","(0, 0)","(1, 0)"
interactor,30,9.352567285765964,0.3039076920362772,-0.168,135_bottom_r,True,3.5819275000249036,,3.8482564999721944,True,"[0.1359076920362772, 0.1359076920362772, 0.1359076920362772]",False,True,lighter,False,0.6177633000188507,left,up,"(0, 1)","(1, 0)","(0, 0)","(0, 0)","(1, 1)","(0, 0)","(0, 0)","(0, 0)"
empty,31,9.046093147410135,0.14497161666639927,0.168,none_d,False,,,3.867854600015562,True,"[0.3129716166663993, 0.3129716166663993, 0.3129716166663993]",True,True,lighter,True,0.49983440001960844,up,down,"(0, 0)","(0, 0)","(1, 1)","(0, 0)","(0, 0)","(0, 0)","(1, 1)","(0, 0)"
empty,32,9.173753357343836,0.06239749894843574,0.168,none_l,True,3.583360699994955,right,3.8497501999954693,True,"[0.23039749894843575, 0.23039749894843575, 0.23039749894843575]",False,False,lighter,True,0.5008850999874994,right,up,"(0, 1)","(0, 0)","(0, 0)","(1, 0)","(0, 1)","(0, 0)","(0, 0)","(1, 0)"
interactor,33,9.483243073179901,-0.245583803023024,0.168,135_top_u,True,3.5818004999891855,,3.8482984000002034,True,"[-0.07758380302302398, -0.07758380302302398, -0.07758380302302398]",False,True,lighter,True,0.5840898000169545,down,right,"(1, 0)","(0, 1)","(0, 0)","(0, 0)","(0, 0)","(1, 1)","(0, 0)","(0, 0)"
empty,34,9.565529176553367,0.16140467461499594,-0.335,none_u,False,,,3.866515600006096,True,"[-0.17359532538500408, -0.17359532538500408, -0.17359532538500408]",True,True,darker,True,0.45068830001400784,down,up,"(1, 1)","(0, 0)","(0, 0)","(0, 0)","(1, 1)","(0, 0)","(0, 0)","(0, 0)"
empty,35,9.534241670032834,-0.05527854332548596,0.335,none_u,False,,,3.866008499986492,True,"[0.2797214566745141, 0.2797214566745141, 0.2797214566745141]",True,True,lighter,True,0.4516401000437327,down,up,"(1, 1)","(0, 0)","(0, 0)","(0, 0)","(1, 1)","(0, 0)","(0, 0)","(0, 0)"
interactor,36,9.815249166122785,-0.05302044025263808,0.0,135_bottom_d,True,3.583663700032048,,3.868157399992924,True,"[-0.05302044025263808, -0.05302044025263808, -0.05302044025263808]",False,True,darker,,0.46660919999703765,up,left,"(0, 0)","(0, 0)","(1, 0)","(0, 1)","(0, 0)","(0, 0)","(0, 0)","(1, 1)"
interactor,37,9.841145033966685,0.22481990895833065,0.335,135_top_u,True,3.5830233999877237,,3.8667787999729626,True,"[0.5598199089583307, 0.5598199089583307, 0.5598199089583307]",False,True,lighter,True,0.43331340001896024,down,right,"(1, 0)","(0, 1)","(0, 0)","(0, 0)","(0, 0)","(1, 1)","(0, 0)","(0, 0)"
empty,38,9.354147027673081,0.2009770737775169,0.168,none_u,False,,,3.867098300019279,True,"[0.3689770737775169, 0.3689770737775169, 0.3689770737775169]",True,True,lighter,True,0.43404720001854,down,up,"(1, 1)","(0, 0)","(0, 0)","(0, 0)","(1, 1)","(0, 0)","(0, 0)","(0, 0)"
interactor,39,9.091462903646153,0.10663494141605911,0.0,135_top_u,False,,,3.866981900006067,True,"[0.10663494141605911, 0.10663494141605911, 0.10663494141605911]",True,False,darker,,0.5666434999438934,down,up,"(1, 1)","(0, 0)","(0, 0)","(0, 0)","(0, 1)","(1, 0)","(0, 0)","(0, 0)"
interactor,40,9.648971192538255,0.0573228639067286,0.168,45_bottom_d,False,,,3.866588699980639,True,"[0.22532286390672862, 0.22532286390672862, 0.22532286390672862]",True,False,lighter,True,0.4835159999784082,up,down,"(0, 0)","(0, 0)","(1, 1)","(0, 0)","(0, 0)","(1, 0)","(0, 1)","(0, 0)"
interactor,41,9.230537512326965,0.43703665430325134,-0.335,45_top_u,True,3.58435759996064,,3.8499057999579236,True,"[0.10203665430325132, 0.10203665430325132, 0.10203665430325132]",False,True,lighter,False,0.5333719000336714,down,left,"(1, 0)","(0, 0)","(0, 0)","(0, 1)","(0, 0)","(0, 0)","(0, 0)","(1, 1)"
interactor,42,9.852461045277142,0.03664729214906817,-0.168,135_top_l,True,3.58210759999929,,3.8658635999890976,True,"[-0.13135270785093184, -0.13135270785093184, -0.13135270785093184]",False,True,darker,True,0.4162287000217475,right,down,"(0, 0)","(0, 0)","(0, 1)","(1, 0)","(0, 0)","(0, 0)","(1, 1)","(0, 0)"
interactor,43,9.550692019632624,0.03781254231042086,0.168,45_bottom_l,True,3.5823740999912843,,3.8489473999943584,True,"[0.20581254231042087, 0.20581254231042087, 0.20581254231042087]",False,True,darker,False,0.5680370000191033,right,up,"(0, 1)","(0, 0)","(0, 0)","(1, 0)","(1, 1)","(0, 0)","(0, 0)","(0, 0)"
empty,44,9.382409984078828,0.111590258780901,-0.335,none_l,False,,,3.865482900000643,True,"[-0.223409741219099, -0.223409741219099, -0.223409741219099]",True,True,darker,True,0.516434199991636,right,left,"(0, 0)","(0, 0)","(0, 0)","(1, 1)","(0, 0)","(0, 0)","(0, 0)","(1, 1)"
empty,45,9.487376646439998,0.3381704160101596,0.0,none_l,False,,,3.8674245000001974,True,"[0.3381704160101596, 0.3381704160101596, 0.3381704160101596]",True,True,lighter,,0.4997301999828778,right,left,"(0, 0)","(0, 0)","(0, 0)","(1, 1)","(0, 0)","(0, 0)","(0, 0)","(1, 1)"
interactor,46,9.833352938389572,0.16495301868427625,0.335,45_bottom_l,False,,,3.8656332999817096,True,"[0.4999530186842763, 0.4999530186842763, 0.4999530186842763]",True,False,lighter,True,0.450499199971091,right,left,"(0, 0)","(0, 0)","(0, 0)","(1, 1)","(1, 0)","(0, 0)","(0, 0)","(0, 1)"
empty,47,9.33837346927675,0.3242202056116441,0.335,none_l,False,,,3.86500089999754,True,"[0.6592202056116441, 0.6592202056116441, 0.6592202056116441]",True,True,lighter,True,0.4181971999933012,right,left,"(0, 0)","(0, 0)","(0, 0)","(1, 1)","(0, 0)","(0, 0)","(0, 0)","(1, 1)"
empty,48,9.8438717767919,-0.09727532884358636,0.335,none_d,True,3.5814959999988787,left,3.8666804000386037,True,"[0.23772467115641366, 0.23772467115641366, 0.23772467115641366]",False,False,lighter,True,0.4825726999551989,up,right,"(0, 0)","(0, 1)","(1, 0)","(0, 0)","(0, 0)","(0, 1)","(1, 0)","(0, 0)"
empty,49,9.581493632889508,0.140399942028557,0.0,none_l,False,,,3.865201399952639,True,"[0.140399942028557, 0.140399942028557, 0.140399942028557]",True,True,darker,,0.48383750003995374,right,left,"(0, 0)","(0, 0)","(0, 0)","(1, 1)","(0, 0)","(0, 0)","(0, 0)","(1, 1)"
interactor,50,9.665710160595044,0.38732406543486697,-0.335,45_top_r,False,,,3.866260000038892,True,"[0.05232406543486695, 0.05232406543486695, 0.05232406543486695]",True,False,darker,True,0.5669518999638967,left,right,"(0, 0)","(1, 1)","(0, 0)","(0, 0)","(0, 0)","(0, 1)","(1, 0)","(0, 0)"
empty,51,9.926751684931295,0.3256176623451862,-0.335,none_l,False,,,3.86804170004325,True,"[-0.009382337654813833, -0.009382337654813833, -0.009382337654813833]",True,True,darker,True,0.3655131999985315,right,left,"(0, 0)","(0, 0)","(0, 0)","(1, 1)","(0, 0)","(0, 0)","(0, 0)","(1, 1)"
interactor,52,9.411858975744318,0.33879827300986476,-0.335,45_bottom_d,False,,,3.86674770002719,True,"[0.003798273009864739, 0.003798273009864739, 0.003798273009864739]",True,False,darker,True,0.49888029997237027,up,down,"(0, 0)","(0, 0)","(1, 1)","(0, 0)","(0, 0)","(1, 0)","(0, 1)","(0, 0)"
empty,53,9.922745368003312,0.5126319047805898,-0.168,none_l,True,3.5822148000006564,left,3.866535799985286,True,"[0.3446319047805898, 0.3446319047805898, 0.3446319047805898]",False,False,lighter,False,0.58224890002748,right,down,"(0, 0)","(0, 0)","(0, 1)","(1, 0)","(0, 0)","(0, 0)","(0, 1)","(1, 0)"
empty,54,9.05087584655452,0.035932933925911015,0.335,none_r,False,,,3.8656207000021823,True,"[0.37093293392591103, 0.37093293392591103, 0.37093293392591103]",True,True,lighter,True,0.5174304000101984,left,right,"(0, 0)","(1, 1)","(0, 0)","(0, 0)","(0, 0)","(1, 1)","(0, 0)","(0, 0)"
empty,55,9.289648225080676,0.10515310602874252,0.0,none_d,True,3.581957300018985,right,3.849787999992259,True,"[0.10515310602874252, 0.10515310602874252, 0.10515310602874252]",False,False,darker,,0.6821479999925941,up,left,"(0, 0)","(0, 0)","(1, 0)","(0, 1)","(0, 0)","(0, 0)","(1, 0)","(0, 1)"
empty,56,9.729763635960303,0.31952615787057126,-0.335,none_r,False,,,3.8670576000004075,True,"[-0.015473842129428761, -0.015473842129428761, -0.015473842129428761]",True,True,darker,True,0.6327395000262186,left,right,"(0, 0)","(1, 1)","(0, 0)","(0, 0)","(0, 0)","(1, 1)","(0, 0)","(0, 0)"
empty,57,9.300628315889226,0.13597356810174077,-0.168,none_d,False,,,3.8660689999815077,True,"[-0.03202643189825924, -0.03202643189825924, -0.03202643189825924]",True,True,darker,True,0.49988220003433526,up,down,"(0, 0)","(0, 0)","(1, 1)","(0, 0)","(0, 0)","(0, 0)","(1, 1)","(0, 0)"
empty,58,9.482726560442478,0.0964189248663338,-0.335,none_r,True,3.5834308000048622,left,3.849553400010336,True,"[-0.23858107513366622, -0.23858107513366622, -0.23858107513366622]",False,False,darker,True,0.5014977999962866,left,up,"(0, 1)","(1, 0)","(0, 0)","(0, 0)","(0, 1)","(1, 0)","(0, 0)","(0, 0)"
interactor,59,9.41369847980277,0.23565911733159825,0.168,135_bottom_d,True,3.582097100035753,,3.849526100035291,True,"[0.40365911733159826, 0.40365911733159826, 0.40365911733159826]",False,True,lighter,True,0.36620619997847825,up,left,"(0, 0)","(0, 0)","(1, 0)","(0, 1)","(0, 0)","(0, 0)","(0, 0)","(1, 1)"
empty,60,9.344017780651495,0.08546349118412294,-0.335,none_u,False,,,3.8665613000048324,True,"[-0.24953650881587708, -0.24953650881587708, -0.24953650881587708]",True,True,darker,True,0.34944999997969717,down,up,"(1, 1)","(0, 0)","(0, 0)","(0, 0)","(1, 1)","(0, 0)","(0, 0)","(0, 0)"
interactor,61,9.748551224586103,0.20750857738319411,0.168,135_bottom_r,False,,,3.866128299967386,True,"[0.3755085773831941, 0.3755085773831941, 0.3755085773831941]",True,False,lighter,True,0.4159732999978587,left,right,"(0, 0)","(1, 1)","(0, 0)","(0, 0)","(1, 0)","(0, 1)","(0, 0)","(0, 0)"
empty,62,9.574014362119662,0.09933646742471774,-0.168,none_r,True,3.582633399986662,left,3.849828800011892,True,"[-0.06866353257528227, -0.06866353257528227, -0.06866353257528227]",False,False,darker,True,0.45183560001896694,left,up,"(0, 1)","(1, 0)","(0, 0)","(0, 0)","(0, 1)","(1, 0)","(0, 0)","(0, 0)"
interactor,63,9.388412125519068,0.23974931563359675,0.0,135_bottom_r,True,3.582267999998294,,3.8486285000108182,True,"[0.23974931563359675, 0.23974931563359675, 0.23974931563359675]",False,True,darker,,0.5341344999615103,left,up,"(0, 1)","(1, 0)","(0, 0)","(0, 0)","(1, 1)","(0, 0)","(0, 0)","(0, 0)"
empty,64,8.930881184529547,-0.07997639109108737,0.0,none_l,True,3.5814037999953143,left,3.848491099954117,True,"[-0.07997639109108737, -0.07997639109108737, -0.07997639109108737]",False,False,lighter,,0.6015534000471234,right,down,"(0, 0)","(0, 0)","(0, 1)","(1, 0)","(0, 0)","(0, 0)","(0, 1)","(1, 0)"
empty,65,9.483765706143783,0.09790921425152929,0.335,none_l,True,3.581598600023426,right,3.8495862999698147,True,"[0.4329092142515293, 0.4329092142515293, 0.4329092142515293]",False,False,lighter,True,0.46725660003721714,right,up,"(0, 1)","(0, 0)","(0, 0)","(1, 0)","(0, 1)","(0, 0)","(0, 0)","(1, 0)"
interactor,66,9.004308838225981,0.3789915849498593,0.168,135_top_l,False,,,3.8672465000418015,True,"[0.5469915849498593, 0.5469915849498593, 0.5469915849498593]",True,False,lighter,True,0.5334904000046663,right,left,"(0, 0)","(0, 0)","(0, 0)","(1, 1)","(0, 0)","(0, 0)","(1, 0)","(0, 1)"
interactor,67,9.14123244926793,0.17711611064160485,0.335,45_bottom_l,True,3.5832661000313237,,3.8497338999877684,True,"[0.5121161106416049, 0.5121161106416049, 0.5121161106416049]",False,True,lighter,True,0.46822860004613176,right,up,"(0, 1)","(0, 0)","(0, 0)","(1, 0)","(1, 1)","(0, 0)","(0, 0)","(0, 0)"
empty,68,9.573718133118593,0.147963379717053,0.335,none_u,False,,,3.8659450000268407,True,"[0.48296337971705305, 0.48296337971705305, 0.48296337971705305]",True,True,lighter,True,0.43425449996721,down,up,"(1, 1)","(0, 0)","(0, 0)","(0, 0)","(1, 1)","(0, 0)","(0, 0)","(0, 0)"
empty,69,9.472043972055113,0.00719816347516225,0.168,none_d,True,3.5846217999933288,right,3.8497219999553636,True,"[0.17519816347516226, 0.17519816347516226, 0.17519816347516226]",False,False,darker,False,0.5837218000087887,up,left,"(0, 0)","(0, 0)","(1, 0)","(0, 1)","(0, 0)","(0, 0)","(1, 0)","(0, 1)"
interactor,70,9.527684452000473,0.24426868895904447,0.168,45_bottom_d,True,3.5824063000036404,,3.850680499977898,True,"[0.41226868895904445, 0.41226868895904445, 0.41226868895904445]",False,True,lighter,True,0.33303959999466315,up,right,"(0, 0)","(0, 1)","(1, 0)","(0, 0)","(0, 0)","(1, 1)","(0, 0)","(0, 0)"
interactor,71,9.25817778427965,0.15374736375443832,0.168,135_bottom_d,True,3.5846403999603353,,3.8500421999488026,True,"[0.32174736375443835, 0.32174736375443835, 0.32174736375443835]",False,True,lighter,True,0.31795510003576055,up,left,"(0, 0)","(0, 0)","(1, 0)","(0, 1)","(0, 0)","(0, 0)","(0, 0)","(1, 1)"
interactor,72,9.345613671452885,-0.011197341160730234,0.0,45_bottom_l,True,3.582757599942852,,3.851159799960442,True,"[-0.011197341160730234, -0.011197341160730234, -0.011197341160730234]",False,True,darker,,0.36608410003827885,right,up,"(0, 1)","(0, 0)","(0, 0)","(1, 0)","(1, 1)","(0, 0)","(0, 0)","(0, 0)"
interactor,73,9.685098044113529,0.11778063933732527,-0.168,45_bottom_l,True,3.583157300017774,,3.848751200013794,True,"[-0.05021936066267474, -0.05021936066267474, -0.05021936066267474]",False,True,darker,True,0.4012862000381574,right,up,"(0, 1)","(0, 0)","(0, 0)","(1, 0)","(1, 1)","(0, 0)","(0, 0)","(0, 0)"
empty,74,9.479731264594546,0.21244215320474807,0.168,none_d,True,3.5822879999759607,left,3.8488723000045866,True,"[0.38044215320474806, 0.38044215320474806, 0.38044215320474806]",False,False,lighter,True,0.41724759998032823,up,right,"(0, 0)","(0, 1)","(1, 0)","(0, 0)","(0, 0)","(0, 1)","(1, 0)","(0, 0)"
empty,75,9.833467346554894,0.32083269468541803,-0.335,none_u,True,3.582819200004451,left,3.8654000999522395,True,"[-0.01416730531458199, -0.01416730531458199, -0.01416730531458199]",False,False,lighter,False,0.4171461000223644,down,left,"(1, 0)","(0, 0)","(0, 0)","(0, 1)","(1, 0)","(0, 0)","(0, 0)","(0, 1)"
interactor,76,9.744595632422575,0.19299376870795354,0.0,135_bottom_d,False,,,3.8653373999986798,True,"[0.19299376870795354, 0.19299376870795354, 0.19299376870795354]",True,False,lighter,,0.36688049999065697,up,down,"(0, 0)","(0, 0)","(1, 1)","(0, 0)","(0, 0)","(0, 0)","(0, 1)","(1, 0)"
empty,77,9.752366000542724,0.20971193175925879,0.168,none_d,False,,,3.865655399975367,True,"[0.37771193175925877, 0.37771193175925877, 0.37771193175925877]",True,True,lighter,True,0.48414640000555664,up,down,"(0, 0)","(0, 0)","(1, 1)","(0, 0)","(0, 0)","(0, 0)","(1, 1)","(0, 0)"
interactor,78,9.56044670692961,0.23984796955616,0.335,135_bottom_d,True,3.5813909000135027,,3.8475972999585792,True,"[0.57484796955616, 0.57484796955616, 0.57484796955616]",False,True,lighter,True,0.3840349000529386,up,left,"(0, 0)","(0, 0)","(1, 0)","(0, 1)","(0, 0)","(0, 0)","(0, 0)","(1, 1)"
empty,79,9.555505441801092,0.08303996773417041,0.168,none_u,False,,,3.864941900013946,True,"[0.2510399677341704, 0.2510399677341704, 0.2510399677341704]",True,True,darker,False,0.40022819995647296,down,up,"(1, 1)","(0, 0)","(0, 0)","(0, 0)","(1, 1)","(0, 0)","(0, 0)","(0, 0)"
empty,80,8.932865475226755,0.18335013065748534,0.168,none_r,True,3.5836378000094555,right,3.8506346000358462,True,"[0.3513501306574853, 0.3513501306574853, 0.3513501306574853]",False,False,lighter,True,0.46731290000025183,left,down,"(0, 0)","(1, 0)","(0, 1)","(0, 0)","(0, 0)","(1, 0)","(0, 1)","(0, 0)"
interactor,81,9.971299266536139,-0.05340126934848066,0.0,45_top_u,False,,,3.8665885000373237,True,"[-0.05340126934848066, -0.05340126934848066, -0.05340126934848066]",True,False,darker,,0.46742010000161827,down,up,"(1, 1)","(0, 0)","(0, 0)","(0, 0)","(0, 1)","(0, 0)","(0, 0)","(1, 0)"
empty,82,9.820743913372791,0.3408914269624352,0.0,none_d,True,3.582490200002212,left,3.8658535999711603,True,"[0.3408914269624352, 0.3408914269624352, 0.3408914269624352]",False,False,lighter,,0.5009441000293009,up,right,"(0, 0)","(0, 1)","(1, 0)","(0, 0)","(0, 0)","(0, 1)","(1, 0)","(0, 0)"
interactor,83,9.650480360779012,0.08788942216820145,0.168,135_top_l,True,3.5831539999926463,,3.849614799953997,True,"[0.25588942216820143, 0.25588942216820143, 0.25588942216820143]",False,True,lighter,True,0.29939840000588447,right,down,"(0, 0)","(0, 0)","(0, 1)","(1, 0)","(0, 0)","(0, 0)","(1, 1)","(0, 0)"
interactor,84,9.297095209373218,-0.09358166168655505,0.0,135_bottom_r,True,3.581137100001797,,3.8487454999703914,True,"[-0.09358166168655505, -0.09358166168655505, -0.09358166168655505]",False,True,darker,,0.5002801000373438,left,up,"(0, 1)","(1, 0)","(0, 0)","(0, 0)","(1, 1)","(0, 0)","(0, 0)","(0, 0)"
interactor,85,9.70920177071208,-0.03360342083223128,-0.168,45_bottom_d,True,3.582401799969375,,3.8487241999828257,True,"[-0.2016034208322313, -0.2016034208322313, -0.2016034208322313]",False,True,lighter,False,0.33471189998090267,up,right,"(0, 0)","(0, 1)","(1, 0)","(0, 0)","(0, 0)","(1, 1)","(0, 0)","(0, 0)"
empty,86,9.423162343127101,0.4850715610911629,0.335,none_d,False,,,3.8673060000292026,True,"[0.8200715610911629, 0.8200715610911629, 0.8200715610911629]",True,True,lighter,True,0.33415499998955056,up,down,"(0, 0)","(0, 0)","(1, 1)","(0, 0)","(0, 0)","(0, 0)","(1, 1)","(0, 0)"
empty,87,8.572990941724736,-0.24014808012874447,-0.335,none_r,False,,,3.857875999994576,True,"[-0.5751480801287445, -0.5751480801287445, -0.5751480801287445]",True,True,darker,True,0.4178699000040069,left,right,"(0, 0)","(1, 1)","(0, 0)","(0, 0)","(0, 0)","(1, 1)","(0, 0)","(0, 0)"
interactor,88,9.811534941201625,0.03486678290076092,-0.335,45_bottom_d,True,3.5824921000166796,,3.865281100035645,True,"[-0.3001332170992391, -0.3001332170992391, -0.3001332170992391]",False,True,lighter,False,0.3334933000151068,up,right,"(0, 0)","(0, 1)","(1, 0)","(0, 0)","(0, 0)","(1, 1)","(0, 0)","(0, 0)"
empty,89,9.462265796971787,0.10323442463881655,-0.168,none_l,True,3.582821999967564,right,3.848704500007443,True,"[-0.06476557536118346, -0.06476557536118346, -0.06476557536118346]",False,False,darker,True,0.5513429999700747,right,up,"(0, 1)","(0, 0)","(0, 0)","(1, 0)","(0, 1)","(0, 0)","(0, 0)","(1, 0)"
empty,90,9.638670790806751,0.21623140302212,0.0,none_l,True,3.583553500007838,right,3.8498933000373654,True,"[0.21623140302212, 0.21623140302212, 0.21623140302212]",False,False,lighter,,0.500804299954325,right,up,"(0, 1)","(0, 0)","(0, 0)","(1, 0)","(0, 1)","(0, 0)","(0, 0)","(1, 0)"
interactor,91,9.937033782158535,0.3790398128185333,-0.168,135_bottom_d,False,,,3.867127800011076,True,"[0.21103981281853326, 0.21103981281853326, 0.21103981281853326]",True,False,darker,True,0.6342481999890879,up,down,"(0, 0)","(0, 0)","(1, 1)","(0, 0)","(0, 0)","(0, 0)","(0, 1)","(1, 0)"
empty,92,9.228894922902505,0.408869807135135,-0.168,none_d,True,3.582453099952545,right,3.850659199990332,True,"[0.24086980713513498, 0.24086980713513498, 0.24086980713513498]",False,False,lighter,False,0.4671470000175759,up,left,"(0, 0)","(0, 0)","(1, 0)","(0, 1)","(0, 0)","(0, 0)","(1, 0)","(0, 1)"
interactor,93,9.500424412280342,0.2555173867519512,0.0,45_bottom_l,False,,,3.866091099975165,True,"[0.2555173867519512, 0.2555173867519512, 0.2555173867519512]",True,False,darker,,0.48430389998247847,right,left,"(0, 0)","(0, 0)","(0, 0)","(1, 1)","(1, 0)","(0, 0)","(0, 0)","(0, 1)"
interactor,94,9.373436617074338,0.052125584076124054,0.335,135_top_u,False,,,3.86638820002554,True,"[0.3871255840761241, 0.3871255840761241, 0.3871255840761241]",True,False,darker,False,0.5663947999710217,down,up,"(1, 1)","(0, 0)","(0, 0)","(0, 0)","(0, 1)","(1, 0)","(0, 0)","(0, 0)"
interactor,95,9.627384796880456,0.4472638162040091,-0.168,45_top_u,False,,,3.8673686999827623,True,"[0.2792638162040091, 0.2792638162040091, 0.2792638162040091]",True,False,lighter,False,0.548921599984169,down,up,"(1, 1)","(0, 0)","(0, 0)","(0, 0)","(0, 1)","(0, 0)","(0, 0)","(1, 0)"
interactor,96,9.83686297034353,0.38722108245581044,0.168,135_bottom_r,True,3.581874599971343,,3.866368399991188,True,"[0.5552210824558105, 0.5552210824558105, 0.5552210824558105]",False,True,lighter,True,0.5168771999888122,left,up,"(0, 1)","(1, 0)","(0, 0)","(0, 0)","(1, 1)","(0, 0)","(0, 0)","(0, 0)"
interactor,97,9.300200205799763,-0.029881762812195456,0.168,45_bottom_d,False,,,3.8663597000413574,True,"[0.13811823718780455, 0.13811823718780455, 0.13811823718780455]",True,False,lighter,True,0.4513069999520667,up,down,"(0, 0)","(0, 0)","(1, 1)","(0, 0)","(0, 0)","(1, 0)","(0, 1)","(0, 0)"
empty,98,9.586923576582159,0.11575388491722352,0.0,none_u,False,,,3.8663035000208765,True,"[0.11575388491722352, 0.11575388491722352, 0.11575388491722352]",True,True,darker,,0.48297239997191355,down,up,"(1, 1)","(0, 0)","(0, 0)","(0, 0)","(1, 1)","(0, 0)","(0, 0)","(0, 0)"
empty,99,9.532469735150642,0.1816805471974085,-0.335,none_d,True,3.583696899993811,left,3.8501566000049934,True,"[-0.15331945280259152, -0.15331945280259152, -0.15331945280259152]",False,False,darker,True,0.46579560003010556,up,right,"(0, 0)","(0, 1)","(1, 0)","(0, 0)","(0, 0)","(0, 1)","(1, 0)","(0, 0)"
empty,100,9.66611380325554,0.29161545588075494,0.0,none_u,False,,,3.866103500011377,True,"[0.29161545588075494, 0.29161545588075494, 0.29161545588075494]",True,True,darker,,0.46636570000555366,down,up,"(1, 1)","(0, 0)","(0, 0)","(0, 0)","(1, 1)","(0, 0)","(0, 0)","(0, 0)"
interactor,101,9.73863221033599,-0.025619118681952074,-0.168,45_bottom_d,True,3.5825420999899507,,3.850352799985558,True,"[-0.19361911868195208, -0.19361911868195208, -0.19361911868195208]",False,True,lighter,False,0.499461000028532,up,right,"(0, 0)","(0, 1)","(1, 0)","(0, 0)","(0, 0)","(1, 1)","(0, 0)","(0, 0)"
empty,102,9.509962667327631,-0.00957296676198427,-0.335,none_r,False,,,3.8662250000052154,True,"[-0.3445729667619843, -0.3445729667619843, -0.3445729667619843]",True,True,darker,True,0.4836342999478802,left,right,"(0, 0)","(1, 1)","(0, 0)","(0, 0)","(0, 0)","(1, 1)","(0, 0)","(0, 0)"
interactor,103,9.448504464160754,0.18437959132179174,0.335,135_top_l,True,3.5837370999506675,,3.850353099987842,True,"[0.5193795913217918, 0.5193795913217918, 0.5193795913217918]",False,True,lighter,True,0.48234400001820177,right,down,"(0, 0)","(0, 0)","(0, 1)","(1, 0)","(0, 0)","(0, 0)","(1, 1)","(0, 0)"
interactor,104,9.573536617111422,0.3676968267876915,-0.335,45_top_r,True,3.5847167000174522,,3.8511021000449546,True,"[0.03269682678769148, 0.03269682678769148, 0.03269682678769148]",False,True,lighter,False,0.34928059997037053,left,down,"(0, 0)","(1, 0)","(0, 1)","(0, 0)","(0, 0)","(0, 0)","(1, 1)","(0, 0)"
interactor,105,9.035428022261684,0.21628680209962056,0.335,45_bottom_d,False,,,3.8660781999933533,True,"[0.5512868020996206, 0.5512868020996206, 0.5512868020996206]",True,False,lighter,True,0.40037909999955446,up,down,"(0, 0)","(0, 0)","(1, 1)","(0, 0)","(0, 0)","(1, 0)","(0, 1)","(0, 0)"
interactor,106,9.513014459899617,0.15102104028849203,-0.335,135_top_l,False,,,3.8647586000151932,True,"[-0.183978959711508, -0.183978959711508, -0.183978959711508]",True,False,darker,True,0.4850806999602355,right,left,"(0, 0)","(0, 0)","(0, 0)","(1, 1)","(0, 0)","(0, 0)","(1, 0)","(0, 1)"
interactor,107,9.947106445594624,-0.10959346532871447,-0.335,135_bottom_r,False,,,3.866121600032784,True,"[-0.44459346532871447, -0.44459346532871447, -0.44459346532871447]",True,False,darker,True,0.4833152999635786,left,right,"(0, 0)","(1, 1)","(0, 0)","(0, 0)","(1, 0)","(0, 1)","(0, 0)","(0, 0)"
interactor,108,9.382186988457804,-0.06384921573456989,-0.168,135_top_l,False,,,3.8663476000074297,True,"[-0.2318492157345699, -0.2318492157345699, -0.2318492157345699]",True,False,darker,True,0.567786299972795,right,left,"(0, 0)","(0, 0)","(0, 0)","(1, 1)","(0, 0)","(0, 0)","(1, 0)","(0, 1)"
empty,109,9.673260314259391,0.1719589005054144,0.0,none_l,True,3.5816271000076085,right,3.8486170999822207,True,"[0.1719589005054144, 0.1719589005054144, 0.1719589005054144]",False,False,lighter,,0.45143680000910535,right,up,"(0, 1)","(0, 0)","(0, 0)","(1, 0)","(0, 1)","(0, 0)","(0, 0)","(1, 0)"
interactor,110,9.667878968627482,0.051574065816404766,-0.168,45_top_r,False,,,3.8657744000083767,True,"[-0.11642593418359524, -0.11642593418359524, -0.11642593418359524]",True,False,darker,True,0.5507216999540105,left,right,"(0, 0)","(1, 1)","(0, 0)","(0, 0)","(0, 0)","(0, 1)","(1, 0)","(0, 0)"
interactor,111,9.2643314856628,0.03136524766625429,-0.335,135_top_l,True,3.5838835000176914,,3.8504820999805816,True,"[-0.3036347523337457, -0.3036347523337457, -0.3036347523337457]",False,True,darker,True,0.40140230004908517,right,down,"(0, 0)","(0, 0)","(0, 1)","(1, 0)","(0, 0)","(0, 0)","(1, 1)","(0, 0)"
interactor,112,9.530136010943881,0.3350611628409773,-0.335,45_bottom_d,False,,,3.8657473000348546,True,"[6.11628409772913e-05, 6.11628409772913e-05, 6.11628409772913e-05]",True,False,lighter,False,0.46706799999810755,up,down,"(0, 0)","(0, 0)","(1, 1)","(0, 0)","(0, 0)","(1, 0)","(0, 1)","(0, 0)"
interactor,113,9.390804053833614,0.23211603137895329,0.0,135_top_l,True,3.582561600022018,,3.849417400022503,True,"[0.23211603137895329, 0.23211603137895329, 0.23211603137895329]",False,True,darker,,0.46582079998916015,right,down,"(0, 0)","(0, 0)","(0, 1)","(1, 0)","(0, 0)","(0, 0)","(1, 1)","(0, 0)"
empty,114,9.184354425822827,0.23766501253163078,-0.168,none_r,False,,,3.865651000000071,True,"[0.06966501253163077, 0.06966501253163077, 0.06966501253163077]",True,True,darker,True,0.5831957000191323,left,right,"(0, 0)","(1, 1)","(0, 0)","(0, 0)","(0, 0)","(1, 1)","(0, 0)","(0, 0)"
empty,115,9.13374033231762,-0.020921657443558672,-0.335,none_l,False,,,3.8662139999796636,True,"[-0.3559216574435587, -0.3559216574435587, -0.3559216574435587]",True,True,darker,True,0.4481476999935694,right,left,"(0, 0)","(0, 0)","(0, 0)","(1, 1)","(0, 0)","(0, 0)","(0, 0)","(1, 1)"
empty,116,9.522937025306643,-0.014009565163618676,0.168,none_l,True,3.582109200011473,left,3.848844099964481,True,"[0.15399043483638133, 0.15399043483638133, 0.15399043483638133]",False,False,lighter,True,0.5005256000440568,right,down,"(0, 0)","(0, 0)","(0, 1)","(1, 0)","(0, 0)","(0, 0)","(0, 1)","(1, 0)"
interactor,117,9.971170453331675,0.16697957800277757,-0.168,135_top_l,True,3.5821911999955773,,3.8668876999872737,True,"[-0.001020421997222437, -0.001020421997222437, -0.001020421997222437]",False,True,darker,True,0.3997263999772258,right,down,"(0, 0)","(0, 0)","(0, 1)","(1, 0)","(0, 0)","(0, 0)","(1, 1)","(0, 0)"
empty,118,9.005746314535353,0.17968671042784856,0.168,none_r,False,,,3.865692399966065,True,"[0.3476867104278486, 0.3476867104278486, 0.3476867104278486]",True,True,lighter,True,0.3169997000368312,left,right,"(0, 0)","(1, 1)","(0, 0)","(0, 0)","(0, 0)","(1, 1)","(0, 0)","(0, 0)"
interactor,119,9.652985564782572,0.21628666206327601,0.0,45_top_u,False,,,3.8646375999669544,True,"[0.21628666206327601, 0.21628666206327601, 0.21628666206327601]",True,False,darker,,0.5181445000343956,down,up,"(1, 1)","(0, 0)","(0, 0)","(0, 0)","(0, 1)","(0, 0)","(0, 0)","(1, 0)"
empty,120,10.102337514374586,0.001698367799574274,0.168,none_u,True,3.5839479999849573,left,3.867479500011541,True,"[0.16969836779957428, 0.16969836779957428, 0.16969836779957428]",False,False,lighter,True,0.4161745999590494,down,left,"(1, 0)","(0, 0)","(0, 0)","(0, 1)","(1, 0)","(0, 0)","(0, 0)","(0, 1)"
empty,121,9.385676525125005,0.17329720702195583,-0.168,none_d,False,,,3.865666700003203,True,"[0.005297207021955824, 0.005297207021955824, 0.005297207021955824]",True,True,darker,True,0.5347250000340864,up,down,"(0, 0)","(0, 0)","(1, 1)","(0, 0)","(0, 0)","(0, 0)","(1, 1)","(0, 0)"
empty,122,9.102959013153841,0.2094333163291942,0.0,none_r,False,,,3.8665596999926493,True,"[0.2094333163291942, 0.2094333163291942, 0.2094333163291942]",True,True,lighter,,0.3669913999619894,left,right,"(0, 0)","(1, 1)","(0, 0)","(0, 0)","(0, 0)","(1, 1)","(0, 0)","(0, 0)"
interactor,123,9.827157108683167,-0.13518465908679358,0.168,135_top_u,False,,,3.865645300014876,True,"[0.032815340913206426, 0.032815340913206426, 0.032815340913206426]",True,False,lighter,True,0.5174707999685779,down,up,"(1, 1)","(0, 0)","(0, 0)","(0, 0)","(0, 1)","(1, 0)","(0, 0)","(0, 0)"
interactor,124,9.404622645750829,0.3624876960106108,0.335,45_bottom_d,True,3.5818980000331067,,3.849352099990938,True,"[0.6974876960106109, 0.6974876960106109, 0.6974876960106109]",False,True,lighter,True,0.4178171000094153,up,right,"(0, 0)","(0, 1)","(1, 0)","(0, 0)","(0, 0)","(1, 1)","(0, 0)","(0, 0)"
interactor,125,9.312046033331402,-0.09724972075977403,0.168,45_top_r,False,,,3.86454539996339,True,"[0.07075027924022598, 0.07075027924022598, 0.07075027924022598]",True,False,darker,False,0.5175216000061482,left,right,"(0, 0)","(1, 1)","(0, 0)","(0, 0)","(0, 0)","(0, 1)","(1, 0)","(0, 0)"
empty,126,9.886751279427932,0.37570111751721663,0.0,none_u,True,3.5831045000231825,left,3.867089000006672,True,"[0.37570111751721663, 0.37570111751721663, 0.37570111751721663]",False,False,lighter,,0.6993194000096992,down,left,"(1, 0)","(0, 0)","(0, 0)","(0, 1)","(1, 0)","(0, 0)","(0, 0)","(0, 1)"
interactor,127,9.80754434519131,0.20254537698550118,-0.168,45_bottom_d,False,,,3.866745900013484,True,"[0.03454537698550117, 0.03454537698550117, 0.03454537698550117]",True,False,darker,True,0.7326777999987826,up,down,"(0, 0)","(0, 0)","(1, 1)","(0, 0)","(0, 0)","(1, 0)","(0, 1)","(0, 0)"
interactor,128,9.525071152427225,0.31566936267398277,-0.335,135_bottom_d,False,,,3.867146499978844,True,"[-0.019330637326017253, -0.019330637326017253, -0.019330637326017253]",True,False,darker,True,0.41689619998214766,up,down,"(0, 0)","(0, 0)","(1, 1)","(0, 0)","(0, 0)","(0, 0)","(0, 1)","(1, 0)"
empty,129,9.726341188186124,0.2529659053175143,0.168,none_r,True,3.5818310999893583,left,3.849179600016214,True,"[0.4209659053175143, 0.4209659053175143, 0.4209659053175143]",False,False,lighter,True,0.41667349997442216,left,up,"(0, 1)","(1, 0)","(0, 0)","(0, 0)","(0, 1)","(1, 0)","(0, 0)","(0, 0)"
empty,130,9.336491748444695,0.10309769105027893,-0.168,none_l,False,,,3.8670578000019304,True,"[-0.06490230894972109, -0.06490230894972109, -0.06490230894972109]",True,True,darker,True,0.48388819996034727,right,left,"(0, 0)","(0, 0)","(0, 0)","(1, 1)","(0, 0)","(0, 0)","(0, 0)","(1, 1)"
empty,131,9.463288853550303,-0.2160756732819403,-0.168,none_d,True,3.5839840000262484,left,3.850223800051026,True,"[-0.3840756732819403, -0.3840756732819403, -0.3840756732819403]",False,False,darker,True,0.5339809999568388,up,right,"(0, 0)","(0, 1)","(1, 0)","(0, 0)","(0, 0)","(0, 1)","(1, 0)","(0, 0)"
empty,132,10.07914847737512,0.038863740868127855,0.335,none_r,True,3.583711300045252,right,3.8658358000102453,True,"[0.3738637408681279, 0.3738637408681279, 0.3738637408681279]",False,False,lighter,True,0.434069000009913,left,down,"(0, 0)","(1, 0)","(0, 1)","(0, 0)","(0, 0)","(1, 0)","(0, 1)","(0, 0)"
empty,133,9.638232617758486,0.2836299779036704,0.168,none_l,False,,,3.86557270004414,True,"[0.45162997790367043, 0.45162997790367043, 0.45162997790367043]",True,True,lighter,True,0.4332058999571018,right,left,"(0, 0)","(0, 0)","(0, 0)","(1, 1)","(0, 0)","(0, 0)","(0, 0)","(1, 1)"
empty,134,9.787551113242738,0.05565823598156379,-0.168,none_u,False,,,3.866606600000523,True,"[-0.11234176401843622, -0.11234176401843622, -0.11234176401843622]",True,True,darker,True,0.433123400027398,down,up,"(1, 1)","(0, 0)","(0, 0)","(0, 0)","(1, 1)","(0, 0)","(0, 0)","(0, 0)"
interactor,135,9.409869916481584,0.040924305179950854,-0.335,135_top_u,True,3.582154600007925,,3.849731099966448,True,"[-0.29407569482004914, -0.29407569482004914, -0.29407569482004914]",False,True,darker,True,0.5177272000000812,down,right,"(1, 0)","(0, 1)","(0, 0)","(0, 0)","(0, 0)","(1, 1)","(0, 0)","(0, 0)"
empty,136,9.331255200725682,0.1437089970971575,0.0,none_r,True,3.5821437999838963,left,3.848760799970478,True,"[0.1437089970971575, 0.1437089970971575, 0.1437089970971575]",False,False,lighter,,0.3664054000400938,left,up,"(0, 1)","(1, 0)","(0, 0)","(0, 0)","(0, 1)","(1, 0)","(0, 0)","(0, 0)"
interactor,137,9.154462588279948,0.25245481789325136,-0.335,135_bottom_r,True,3.5819709999486804,,3.850355699949432,True,"[-0.08254518210674866, -0.08254518210674866, -0.08254518210674866]",False,True,darker,True,0.4166228999965824,left,up,"(0, 1)","(1, 0)","(0, 0)","(0, 0)","(1, 1)","(0, 0)","(0, 0)","(0, 0)"
empty,138,9.513491706340613,0.3387860723415128,-0.168,none_r,True,3.581973000022117,left,3.850020800018683,True,"[0.1707860723415128, 0.1707860723415128, 0.1707860723415128]",False,False,lighter,False,0.3832737000193447,left,up,"(0, 1)","(1, 0)","(0, 0)","(0, 0)","(0, 1)","(1, 0)","(0, 0)","(0, 0)"
empty,139,10.032696908581729,0.18104660496556307,0.0,none_l,False,,,3.8665089000132866,True,"[0.18104660496556307, 0.18104660496556307, 0.18104660496556307]",True,True,lighter,,0.43344189994968474,right,left,"(0, 0)","(0, 0)","(0, 0)","(1, 1)","(0, 0)","(0, 0)","(0, 0)","(1, 1)"
interactor,140,9.226544261331767,0.4518032848539918,0.335,45_top_r,False,,,3.866346099996008,True,"[0.7868032848539919, 0.7868032848539919, 0.7868032848539919]",True,False,lighter,True,0.48428090004017577,left,right,"(0, 0)","(1, 1)","(0, 0)","(0, 0)","(0, 0)","(0, 1)","(1, 0)","(0, 0)"
empty,141,9.733497659384359,0.29379866344934247,-0.335,none_d,True,3.583415699948091,right,3.8503660999704152,True,"[-0.04120133655065755, -0.04120133655065755, -0.04120133655065755]",False,False,darker,True,0.5173108000308275,up,left,"(0, 0)","(0, 0)","(1, 0)","(0, 1)","(0, 0)","(0, 0)","(1, 0)","(0, 1)"
empty,142,9.49960243983976,0.3524610563496805,-0.335,none_d,False,,,3.866959400009364,True,"[0.01746105634968048, 0.01746105634968048, 0.01746105634968048]",True,True,darker,True,0.8336751000024378,up,down,"(0, 0)","(0, 0)","(1, 1)","(0, 0)","(0, 0)","(0, 0)","(1, 1)","(0, 0)"
empty,143,9.206406199363974,-0.3369224279829671,0.168,none_d,False,,,3.8659652000060305,True,"[-0.1689224279829671, -0.1689224279829671, -0.1689224279829671]",True,True,lighter,True,0.5171910999924876,up,down,"(0, 0)","(0, 0)","(1, 1)","(0, 0)","(0, 0)","(0, 0)","(1, 1)","(0, 0)"
empty,144,9.29060653533753,0.19985793925350376,-0.335,none_u,False,,,3.8674964000238106,True,"[-0.13514206074649626, -0.13514206074649626, -0.13514206074649626]",True,True,lighter,False,0.38422690000152215,down,up,"(1, 1)","(0, 0)","(0, 0)","(0, 0)","(1, 1)","(0, 0)","(0, 0)","(0, 0)"
empty,145,9.000288242613598,0.20238300498248868,-0.168,none_u,True,3.5823144000023603,right,3.850318100012373,True,"[0.03438300498248867, 0.03438300498248867, 0.03438300498248867]",False,False,lighter,False,0.3832560000009835,down,right,"(1, 0)","(0, 1)","(0, 0)","(0, 0)","(1, 0)","(0, 1)","(0, 0)","(0, 0)"
empty,146,9.637583061179201,-0.006467945281651649,0.335,none_l,True,3.583360699994955,right,3.8494638999691233,True,"[0.32853205471834834, 0.32853205471834834, 0.32853205471834834]",False,False,lighter,True,0.46817420003935695,right,up,"(0, 1)","(0, 0)","(0, 0)","(1, 0)","(0, 1)","(0, 0)","(0, 0)","(1, 0)"
interactor,147,9.358527727171365,0.31137145413514455,0.335,135_top_l,False,,,3.866405999986455,True,"[0.6463714541351446, 0.6463714541351446, 0.6463714541351446]",True,False,lighter,True,0.4501973000005819,right,left,"(0, 0)","(0, 0)","(0, 0)","(1, 1)","(0, 0)","(0, 0)","(1, 0)","(0, 1)"
interactor,148,9.174845427170995,0.0220269909673545,0.0,45_bottom_d,False,,,3.8655626999679953,True,"[0.0220269909673545, 0.0220269909673545, 0.0220269909673545]",True,False,darker,,0.6005135999876074,up,down,"(0, 0)","(0, 0)","(1, 1)","(0, 0)","(0, 0)","(1, 0)","(0, 1)","(0, 0)"
interactor,149,9.377580815888798,0.23885086416199872,0.168,45_top_u,True,3.5825443000067025,,3.8487366000190377,True,"[0.4068508641619987, 0.4068508641619987, 0.4068508641619987]",False,True,lighter,True,0.41818169999169186,down,left,"(1, 0)","(0, 0)","(0, 0)","(0, 1)","(0, 0)","(0, 0)","(0, 0)","(1, 1)"
empty,150,9.70486469754396,-0.017277989805988603,0.335,none_u,True,3.5838799999910407,right,3.849667500006035,True,"[0.3177220101940114, 0.3177220101940114, 0.3177220101940114]",False,False,lighter,True,0.36744989996077493,down,right,"(1, 0)","(0, 1)","(0, 0)","(0, 0)","(1, 0)","(0, 1)","(0, 0)","(0, 0)"
interactor,151,9.25708424288418,-0.2872419656839402,-0.168,135_top_u,True,3.5847779999603517,,3.8498076999676414,True,"[-0.45524196568394026, -0.45524196568394026, -0.45524196568394026]",False,True,darker,True,0.46729250001953915,down,right,"(1, 0)","(0, 1)","(0, 0)","(0, 0)","(0, 0)","(1, 1)","(0, 0)","(0, 0)"
interactor,152,9.219750702942944,0.3327942264937073,0.0,135_bottom_r,False,,,3.867197599960491,True,"[0.3327942264937073, 0.3327942264937073, 0.3327942264937073]",True,False,lighter,,0.583347000007052,left,right,"(0, 0)","(1, 1)","(0, 0)","(0, 0)","(1, 0)","(0, 1)","(0, 0)","(0, 0)"
empty,153,9.536197959144747,0.5164953798577212,-0.168,none_l,True,3.583890799956862,right,3.849221899989061,True,"[0.34849537985772117, 0.34849537985772117, 0.34849537985772117]",False,False,lighter,False,0.40082490001805127,right,up,"(0, 1)","(0, 0)","(0, 0)","(1, 0)","(0, 1)","(0, 0)","(0, 0)","(1, 0)"
interactor,154,9.81741908250874,0.31869021234779815,-0.168,45_top_u,True,3.582828300015535,,3.8654425000422634,True,"[0.15069021234779814, 0.15069021234779814, 0.15069021234779814]",False,True,lighter,False,0.46863989997655153,down,left,"(1, 0)","(0, 0)","(0, 0)","(0, 1)","(0, 0)","(0, 0)","(0, 0)","(1, 1)"
empty,155,9.249559745227153,0.1377131683543345,-0.335,none_d,False,,,3.8643504999927245,True,"[-0.19728683164566552, -0.19728683164566552, -0.19728683164566552]",True,True,darker,True,0.43439810001291335,up,down,"(0, 0)","(0, 0)","(1, 1)","(0, 0)","(0, 0)","(0, 0)","(1, 1)","(0, 0)"
interactor,156,9.03537310807439,-0.03826484719023629,0.335,135_bottom_r,True,3.581267100002151,,3.8485731999971904,True,"[0.2967351528097637, 0.2967351528097637, 0.2967351528097637]",False,True,lighter,True,0.33328580000670627,left,up,"(0, 1)","(1, 0)","(0, 0)","(0, 0)","(1, 1)","(0, 0)","(0, 0)","(0, 0)"
interactor,157,9.195299570690203,-0.16633381712232323,0.335,135_bottom_d,False,,,3.866893899976276,True,"[0.1686661828776768, 0.1686661828776768, 0.1686661828776768]",True,False,darker,False,0.5009836999815889,up,down,"(0, 0)","(0, 0)","(1, 1)","(0, 0)","(0, 0)","(0, 0)","(0, 1)","(1, 0)"
interactor,158,9.4346620838743,0.10886569665549056,-0.335,45_bottom_l,True,3.5816240000422113,,3.850220700027421,True,"[-0.22613430334450946, -0.22613430334450946, -0.22613430334450946]",False,True,darker,True,0.4327370999963023,right,up,"(0, 1)","(0, 0)","(0, 0)","(1, 0)","(1, 1)","(0, 0)","(0, 0)","(0, 0)"
empty,159,9.69651250067788,0.24288063781725905,-0.168,none_u,True,3.5815533000277355,left,3.84849750000285,True,"[0.07488063781725904, 0.07488063781725904, 0.07488063781725904]",False,False,lighter,False,0.41784410004038364,down,left,"(1, 0)","(0, 0)","(0, 0)","(0, 1)","(1, 0)","(0, 0)","(0, 0)","(0, 1)"
interactor,160,9.251335988972572,0.1688986977782717,0.335,135_bottom_r,True,3.583566299988888,,3.8508156000170857,True,"[0.5038986977782718, 0.5038986977782718, 0.5038986977782718]",False,True,lighter,True,0.3492072999943048,left,up,"(0, 1)","(1, 0)","(0, 0)","(0, 0)","(1, 1)","(0, 0)","(0, 0)","(0, 0)"
interactor,161,9.506729273956987,0.12273923163602055,0.0,45_top_u,True,3.582941300002858,,3.851339699991513,True,"[0.12273923163602055, 0.12273923163602055, 0.12273923163602055]",False,True,lighter,,0.31661609996808693,down,left,"(1, 0)","(0, 0)","(0, 0)","(0, 1)","(0, 0)","(0, 0)","(0, 0)","(1, 1)"
empty,162,9.043557114190502,0.014339606643298669,0.335,none_u,True,3.5839988000225276,left,3.849649399984628,True,"[0.34933960664329866, 0.34933960664329866, 0.34933960664329866]",False,False,lighter,True,0.3671837000292726,down,left,"(1, 0)","(0, 0)","(0, 0)","(0, 1)","(1, 0)","(0, 0)","(0, 0)","(0, 1)"
empty,163,9.957640578192137,0.4476322754118115,-0.168,none_l,False,,,3.8648469999898225,True,"[0.27963227541181146, 0.27963227541181146, 0.27963227541181146]",True,True,darker,True,0.45098020002478734,right,left,"(0, 0)","(0, 0)","(0, 0)","(1, 1)","(0, 0)","(0, 0)","(0, 0)","(1, 1)"
interactor,164,9.600131328108494,0.29326303873296167,-0.335,135_bottom_d,True,3.581940100004431,,3.850169499986805,True,"[-0.04173696126703835, -0.04173696126703835, -0.04173696126703835]",False,True,darker,True,0.4999672000412829,up,left,"(0, 0)","(0, 0)","(1, 0)","(0, 1)","(0, 0)","(0, 0)","(0, 0)","(1, 1)"
empty,165,9.654083067431008,0.3365460437055736,0.0,none_r,True,3.5831918000476435,right,3.8494946000282653,True,"[0.3365460437055736, 0.3365460437055736, 0.3365460437055736]",False,False,lighter,,0.4173499000025913,left,down,"(0, 0)","(1, 0)","(0, 1)","(0, 0)","(0, 0)","(1, 0)","(0, 1)","(0, 0)"
empty,166,10.095160387916716,0.16854790263509725,0.168,none_r,True,3.5833626000094227,right,3.868059500004165,True,"[0.33654790263509726, 0.33654790263509726, 0.33654790263509726]",False,False,lighter,True,0.34844269999302924,left,down,"(0, 0)","(1, 0)","(0, 1)","(0, 0)","(0, 0)","(1, 0)","(0, 1)","(0, 0)"
interactor,167,9.496093045723178,0.09939023227265231,0.335,135_top_u,False,,,3.8655137000023387,True,"[0.43439023227265233, 0.43439023227265233, 0.43439023227265233]",True,False,lighter,True,0.48451209999620914,down,up,"(1, 1)","(0, 0)","(0, 0)","(0, 0)","(0, 1)","(1, 0)","(0, 0)","(0, 0)"
empty,168,9.493253477115914,0.1305316110795105,0.168,none_l,False,,,3.8659029999980703,True,"[0.29853161107951054, 0.29853161107951054, 0.29853161107951054]",True,True,lighter,True,0.3851196999894455,right,left,"(0, 0)","(0, 0)","(0, 0)","(1, 1)","(0, 0)","(0, 0)","(0, 0)","(1, 1)"
interactor,169,9.296010253703766,0.035766016754074204,0.168,45_top_r,True,3.5825372000108473,,3.849004400020931,True,"[0.20376601675407421, 0.20376601675407421, 0.20376601675407421]",False,True,lighter,True,0.36718760000076145,left,down,"(0, 0)","(1, 0)","(0, 1)","(0, 0)","(0, 0)","(0, 0)","(1, 1)","(0, 0)"
interactor,170,9.455565904390843,-0.09409030660907555,0.0,135_top_u,True,3.582531799969729,,3.8489555999985896,True,"[-0.09409030660907555, -0.09409030660907555, -0.09409030660907555]",False,True,lighter,,0.5500379999866709,down,right,"(1, 0)","(0, 1)","(0, 0)","(0, 0)","(0, 0)","(1, 1)","(0, 0)","(0, 0)"
interactor,171,10.090032915636428,0.3667019777663906,0.0,135_bottom_r,False,,,3.8668712999788113,True,"[0.3667019777663906, 0.3667019777663906, 0.3667019777663906]",True,False,lighter,,0.582663599983789,left,right,"(0, 0)","(1, 1)","(0, 0)","(0, 0)","(1, 0)","(0, 1)","(0, 0)","(0, 0)"
interactor,172,9.703680967375066,0.34129514269476785,0.168,45_top_u,False,,,3.8654551999643445,True,"[0.5092951426947678, 0.5092951426947678, 0.5092951426947678]",True,False,darker,False,0.517465400043875,down,up,"(1, 1)","(0, 0)","(0, 0)","(0, 0)","(0, 1)","(0, 0)","(0, 0)","(1, 0)"
interactor,173,9.6680596223729,0.2672950928643153,-0.168,45_bottom_l,True,3.5827374000218697,,3.849408800015226,True,"[0.09929509286431529, 0.09929509286431529, 0.09929509286431529]",False,True,lighter,False,0.41769850003765896,right,up,"(0, 1)","(0, 0)","(0, 0)","(1, 0)","(1, 1)","(0, 0)","(0, 0)","(0, 0)"
interactor,174,9.456731032094329,0.17583361061048772,-0.335,135_top_u,False,,,3.8672506000148132,True,"[-0.1591663893895123, -0.1591663893895123, -0.1591663893895123]",True,False,darker,True,0.45001659996341914,down,up,"(1, 1)","(0, 0)","(0, 0)","(0, 0)","(0, 1)","(1, 0)","(0, 0)","(0, 0)"
empty,175,10.083357979731316,0.19511725832175936,-0.168,none_u,False,,,3.866929399955552,True,"[0.027117258321759347, 0.027117258321759347, 0.027117258321759347]",True,True,darker,True,0.46755930001381785,down,up,"(1, 1)","(0, 0)","(0, 0)","(0, 0)","(1, 1)","(0, 0)","(0, 0)","(0, 0)"
empty,176,9.661645931672043,-0.1940997837326209,0.335,none_r,False,,,3.8653949999716133,True,"[0.1409002162673791, 0.1409002162673791, 0.1409002162673791]",True,True,darker,False,0.4345764000318013,left,right,"(0, 0)","(1, 1)","(0, 0)","(0, 0)","(0, 0)","(1, 1)","(0, 0)","(0, 0)"
interactor,177,9.554214916157987,0.00564680429281561,0.168,135_bottom_d,False,,,3.865615999966394,True,"[0.17364680429281562, 0.17364680429281562, 0.17364680429281562]",True,False,darker,False,0.43347410002024844,up,down,"(0, 0)","(0, 0)","(1, 1)","(0, 0)","(0, 0)","(0, 0)","(0, 1)","(1, 0)"
interactor,178,9.572303520160624,0.20691301869376905,0.0,45_top_r,False,,,3.865824500040617,True,"[0.20691301869376905, 0.20691301869376905, 0.20691301869376905]",True,False,lighter,,0.467168600007426,left,right,"(0, 0)","(1, 1)","(0, 0)","(0, 0)","(0, 0)","(0, 1)","(1, 0)","(0, 0)"
empty,179,9.486205915547846,0.3431015551843223,-0.168,none_u,True,3.5737573000369594,left,3.8418340000207536,True,"[0.17510155518432227, 0.17510155518432227, 0.17510155518432227]",False,False,lighter,False,0.5327849999885075,down,left,"(1, 0)","(0, 0)","(0, 0)","(0, 1)","(1, 0)","(0, 0)","(0, 0)","(0, 1)"
empty,180,9.566929159628861,-0.08934219156378578,0.335,none_l,False,,,3.858581400010735,True,"[0.24565780843621424, 0.24565780843621424, 0.24565780843621424]",True,True,darker,False,0.41633069998351857,right,left,"(0, 0)","(0, 0)","(0, 0)","(1, 1)","(0, 0)","(0, 0)","(0, 0)","(1, 1)"
interactor,181,9.346276950436994,0.04940473769372847,0.0,135_top_l,False,,,3.8586413000011817,True,"[0.04940473769372847, 0.04940473769372847, 0.04940473769372847]",True,False,darker,,0.4994416999979876,right,left,"(0, 0)","(0, 0)","(0, 0)","(1, 1)","(0, 0)","(0, 0)","(1, 0)","(0, 1)"
empty,182,9.403118637812808,0.23046157738970108,0.335,none_r,False,,,3.8584285999531858,True,"[0.5654615773897012, 0.5654615773897012, 0.5654615773897012]",True,True,lighter,True,0.43248750001657754,left,right,"(0, 0)","(1, 1)","(0, 0)","(0, 0)","(0, 0)","(1, 1)","(0, 0)","(0, 0)"
empty,183,9.417788394222988,0.11699396193447506,0.168,none_d,True,3.5753247999818996,right,3.8425031999940984,True,"[0.28499396193447507, 0.28499396193447507, 0.28499396193447507]",False,False,lighter,True,0.40076459996635094,up,left,"(0, 0)","(0, 0)","(1, 0)","(0, 1)","(0, 0)","(0, 0)","(1, 0)","(0, 1)"
interactor,184,10.100011913124606,0.17498953843796505,-0.335,45_bottom_l,False,,,3.8580044000409544,True,"[-0.16001046156203497, -0.16001046156203497, -0.16001046156203497]",True,False,darker,True,0.4658954999758862,right,left,"(0, 0)","(0, 0)","(0, 0)","(1, 1)","(1, 0)","(0, 0)","(0, 0)","(0, 1)"
empty,185,9.018438150545107,0.2903355436783005,0.168,none_u,True,3.574892100004945,right,3.8420761000015773,True,"[0.45833554367830054, 0.45833554367830054, 0.45833554367830054]",False,False,lighter,True,0.2999060000292957,down,right,"(1, 0)","(0, 1)","(0, 0)","(0, 0)","(1, 0)","(0, 1)","(0, 0)","(0, 0)"
empty,186,9.078572848434872,-0.04956203122931982,0.0,none_r,False,,,3.857652800041251,True,"[-0.04956203122931982, -0.04956203122931982, -0.04956203122931982]",True,True,darker,,0.5340429999632761,left,right,"(0, 0)","(1, 1)","(0, 0)","(0, 0)","(0, 0)","(1, 1)","(0, 0)","(0, 0)"
empty,187,9.841380254380345,0.1534479926537534,0.0,none_d,False,,,3.858163900033105,True,"[0.1534479926537534, 0.1534479926537534, 0.1534479926537534]",True,True,darker,,0.5008069999748841,up,down,"(0, 0)","(0, 0)","(1, 1)","(0, 0)","(0, 0)","(0, 0)","(1, 1)","(0, 0)"
interactor,188,9.526475444312489,0.15891430620522523,0.0,45_top_r,False,,,3.8573722000001,True,"[0.15891430620522523, 0.15891430620522523, 0.15891430620522523]",True,False,darker,,0.45058120001340285,left,right,"(0, 0)","(1, 1)","(0, 0)","(0, 0)","(0, 0)","(0, 1)","(1, 0)","(0, 0)"
empty,189,9.726346343540543,0.06966272967046643,0.0,none_u,True,3.574545899988152,right,3.841717300005257,True,"[0.06966272967046643, 0.06966272967046643, 0.06966272967046643]",False,False,darker,,0.48431740002706647,down,right,"(1, 0)","(0, 1)","(0, 0)","(0, 0)","(1, 0)","(0, 1)","(0, 0)","(0, 0)"
empty,190,9.590879272302386,-0.17743765072564585,-0.335,none_u,True,3.5734979000408202,right,3.8418462999979965,True,"[-0.5124376507256458, -0.5124376507256458, -0.5124376507256458]",False,False,darker,True,0.5660059000365436,down,right,"(1, 0)","(0, 1)","(0, 0)","(0, 0)","(1, 0)","(0, 1)","(0, 0)","(0, 0)"
empty,191,9.282636479442324,0.1937183253934141,0.335,none_d,True,3.575224399974104,right,3.8416345000150613,True,"[0.5287183253934141, 0.5287183253934141, 0.5287183253934141]",False,False,darker,False,0.4170536999590695,up,left,"(0, 0)","(0, 0)","(1, 0)","(0, 1)","(0, 0)","(0, 0)","(1, 0)","(0, 1)"
interactor,192,9.310048797833327,0.31204179063097204,-0.335,45_top_u,False,,,3.8582981000072323,True,"[-0.022958209369027982, -0.022958209369027982, -0.022958209369027982]",True,False,darker,True,0.5830819999682717,down,up,"(1, 1)","(0, 0)","(0, 0)","(0, 0)","(0, 1)","(0, 0)","(0, 0)","(1, 0)"
interactor,193,9.275108350735,0.022368828288313963,0.335,45_top_r,True,3.5743738999590278,,3.84060519997729,True,"[0.35736882828831396, 0.35736882828831396, 0.35736882828831396]",False,True,lighter,True,0.4680633000098169,left,down,"(0, 0)","(1, 0)","(0, 1)","(0, 0)","(0, 0)","(0, 0)","(1, 1)","(0, 0)"
interactor,194,9.267924990715816,0.20854677263796917,-0.335,45_bottom_l,False,,,3.856748200021684,True,"[-0.12645322736203085, -0.12645322736203085, -0.12645322736203085]",True,False,darker,True,0.5180046000168659,right,left,"(0, 0)","(0, 0)","(0, 0)","(1, 1)","(1, 0)","(0, 0)","(0, 0)","(0, 1)"
empty,195,9.396527767542079,-0.009324872665303852,-0.335,none_l,True,3.575762599997688,right,3.8411301999585703,True,"[-0.34432487266530387, -0.34432487266530387, -0.34432487266530387]",False,False,darker,True,0.44965800002682954,right,up,"(0, 1)","(0, 0)","(0, 0)","(1, 0)","(0, 1)","(0, 0)","(0, 0)","(1, 0)"
interactor,196,9.63062881777616,0.138801805125131,0.0,45_top_r,True,3.5753047000034712,,3.840638299996499,True,"[0.138801805125131, 0.138801805125131, 0.138801805125131]",False,True,lighter,,0.3521932000294328,left,down,"(0, 0)","(1, 0)","(0, 1)","(0, 0)","(0, 0)","(0, 0)","(1, 1)","(0, 0)"
interactor,197,9.389763778844719,0.2982998161451631,-0.335,45_top_u,True,3.574217999994289,,3.839628799993079,True,"[-0.03670018385483692, -0.03670018385483692, -0.03670018385483692]",False,True,darker,True,0.3833126000245102,down,left,"(1, 0)","(0, 0)","(0, 0)","(0, 1)","(0, 0)","(0, 0)","(0, 0)","(1, 1)"
interactor,198,9.07095587360559,-0.10255056076674365,-0.168,45_top_r,True,3.5752611000207253,,3.841755200002808,True,"[-0.27055056076674366, -0.27055056076674366, -0.27055056076674366]",False,True,darker,True,0.49876320001203567,left,down,"(0, 0)","(1, 0)","(0, 1)","(0, 0)","(0, 0)","(0, 0)","(1, 1)","(0, 0)"
empty,199,9.430144360984679,0.28239329148081915,0.168,none_l,True,3.576222300005611,right,3.841932100011036,True,"[0.4503932914808192, 0.4503932914808192, 0.4503932914808192]",False,False,lighter,True,0.43313219997799024,right,up,"(0, 1)","(0, 0)","(0, 0)","(1, 0)","(0, 1)","(0, 0)","(0, 0)","(1, 0)"
interactor,200,8.990578051588294,-0.1326185434930869,0.0,135_top_l,False,,,3.8587399999960326,True,"[-0.1326185434930869, -0.1326185434930869, -0.1326185434930869]",True,False,lighter,,0.6157602000166662,right,left,"(0, 0)","(0, 0)","(0, 0)","(1, 1)","(0, 0)","(0, 0)","(1, 0)","(0, 1)"
